File: xrpostproc/powder_xrd_screening/extended_convex_hull_POSCARS.txt
EA2595  6.844  7.416  7.484 84.99 64.98 93.42 Sym.group:  194
1.0
    6.843021     0.000939     0.120119
   -0.441553     7.402772    -0.085351
    3.047025     0.915174     6.773949
  Ba
  20
Direct
    0.479107     0.831816     0.125904
    0.279113     0.131819     0.025907
    0.680163     0.198323     0.058294
    0.080172     0.098327     0.758286
    0.079113     0.931815     0.425915
    0.479115     0.331815     0.625910
    0.280168     0.798321     0.858289
    0.480178     0.498328     0.958283
    0.279117     0.631815     0.525908
    0.679113     0.531816     0.225917
    0.079114     0.431820     0.925899
    0.680176     0.698331     0.558277
    0.679113     0.031816     0.725902
    0.280167     0.298329     0.358282
    0.480164     0.998324     0.458282
    0.080165     0.598324     0.258286
    0.879114     0.731817     0.825911
    0.880165     0.898330     0.158283
    0.880162     0.398319     0.658289
    0.879122     0.231818     0.325904
EA5756  5.849  5.849  2.828 90.00 90.00 60.00 Sym.group:  191
1.0
    5.848983     0.013625    -0.023629
    2.912602     5.072424    -0.033439
    0.011313     0.012047     2.827725
  Ba   H
   4   8
Direct
    0.808029     0.948360     0.352821
    0.307997     0.448335     0.352835
    0.308054     0.948360     0.352840
    0.807988     0.448327     0.352835
    0.974642     0.615010     0.852777
    0.641418     0.781661     0.852801
    0.141405     0.781697     0.852824
    0.141317     0.281684     0.852834
    0.474739     0.115027     0.852822
    0.974752     0.114993     0.852804
    0.641309     0.281679     0.852780
    0.474648     0.615015     0.852833
EA5785  4.286  4.163  4.286 74.64 91.91 105.38 Sym.group:   65
1.0
    4.286081     0.033132    -0.047955
   -1.134869     4.005384     0.004750
   -0.105209     1.145136     4.129159
  Ba   H
   2  20
Direct
    0.978614     0.978426     0.886457
    0.478578     0.978351     0.386464
    0.935585     0.362216     0.429647
    0.243918     0.595761     0.121042
    0.021473     0.150184     0.343736
    0.396478     0.394172     0.595765
    0.935762     0.806603     0.429204
    0.435774     0.806635     0.929174
    0.743965     0.595803     0.620971
    0.521452     0.150153     0.843760
    0.713331     0.361035     0.651909
    0.521618     0.594578     0.843309
    0.687727     0.562895     0.304042
    0.269487     0.393896     0.468900
    0.896377     0.394167     0.095744
    0.435601     0.362206     0.929617
    0.187741     0.562909     0.804097
    0.060843     0.562609     0.677197
    0.213261     0.360990     0.151965
    0.021642     0.594575     0.343303
    0.769497     0.393874     0.968836
    0.560737     0.562623     0.177173
EA9003  3.935  3.152  3.935 66.68 106.40 113.32 Sym.group:   71
1.0
    2.746916    -2.814542     0.118650
    1.200769     2.914537    -0.039140
    0.021299     1.723192     3.537188
  Ba   H
   1  12
Direct
    0.999088     0.488748     0.003857
    0.558451     0.837793     0.866364
    0.439637     0.140149     0.140305
    0.861270     0.139564     0.563127
    0.135123     0.837191     0.444282
    0.092805     0.225503     0.616544
    0.903614     0.751131     0.391015
    0.611743     0.751760     0.097846
    0.386228     0.226094     0.908761
    0.422769     0.168208     0.579061
    0.576138     0.318308     0.425742
    0.573883     0.808447     0.427983
    0.420649     0.658767     0.581202
EA9220  3.847  4.238  3.847 89.43 113.55 89.43 Sym.group:   44
1.0
    3.795727    -0.380693     0.500302
    0.442817     4.211535     0.171672
   -1.981428     0.112707     3.296124
  Ba   H
   2  12
Direct
    0.278687     0.100378     0.917824
    0.778627     0.600400     0.417793
    0.792534     0.327334     0.948991
    0.629144     0.116318     0.535109
    0.395791     0.616421     0.768262
    0.810063     0.827160     0.931818
    0.204678     0.473080     0.241923
    0.102600     0.973182     0.343770
    0.310023     0.327196     0.431801
    0.704695     0.973037     0.741965
    0.292566     0.827295     0.449044
    0.602544     0.473228     0.843733
    0.895827     0.116407     0.268248
    0.129163     0.616330     0.035070
EA9269  3.613  4.471  4.479 80.75 66.47 66.24 Sym.group:   12
1.0
    3.611688    -0.012397    -0.076230
    1.814603     4.085968    -0.077234
    1.874046     0.032363     4.067551
  Ba   H
   1  23
Direct
    0.561504     0.686570     0.184914
    0.012777     0.296090     0.832171
    0.082212     0.494748     0.528840
    0.626842     0.073506     0.829628
    0.610943     0.595825     0.684310
    0.231534     0.497988     0.837622
    0.585522     0.171330     0.263814
    0.537446     0.201827     0.106070
    0.321200     0.070878     0.556997
    0.061483     0.686555     0.684938
    0.055453     0.173148     0.103815
    0.511992     0.777332     0.685585
    0.040729     0.878386     0.841011
    0.843000     0.922588     0.371755
    0.110256     0.077011     0.537759
    0.043166     0.921967     0.001818
    0.416862     0.073057     0.814139
    0.706190     0.300053     0.555764
    0.067528     0.199974     0.266122
    0.801768     0.302335     0.812903
    0.496143     0.299657     0.540254
    0.891411     0.875142     0.532229
    0.079825     0.451193     0.368006
    0.279991     0.450553     0.998107
EA9719  3.092  3.119  3.303 62.19 117.90 119.70 Sym.group:   15
1.0
    3.091426    -0.040269     0.009843
   -1.509894     2.728837     0.022618
   -1.542906     0.884652     2.783335
   H
  12
Direct
    0.180322     0.838084     0.004717
    0.010303     0.859076     0.498170
    0.234989     0.339308     0.504765
    0.659007     0.122347     0.976447
    0.675674     0.360167     0.997962
    0.767386     0.621931     0.475427
    0.405517     0.554305     0.033699
    0.993081     0.338799     0.504631
    0.160972     0.318188     0.011548
    0.939885     0.840284     0.005119
    0.513116     0.055051     0.535283
    0.497466     0.819220     0.511287
EA7006  3.826  3.568  5.072 69.43 80.57 62.21 Sym.group:   70
1.0
    2.171562     3.149904     0.024454
   -1.654606     3.161621     0.013328
   -0.840156     1.551799     4.755363
  Ba   H
   2  12
Direct
    0.212722     0.806392     0.731606
    0.716387     0.054779     0.231616
    0.083816     0.388436     0.141240
    0.577847     0.191740     0.642025
    0.215057     0.433743     0.473165
    0.084070     0.353841     0.322082
    0.714199     0.684307     0.973125
    0.578110     0.055666     0.821327
    0.845353     0.472818     0.821981
    0.714093     0.427517     0.490055
    0.214968     0.176948     0.990102
    0.845082     0.507409     0.641127
    0.351303     0.669514     0.321192
    0.351055     0.805566     0.141923
EA3575  5.878  5.879  2.839 90.00 90.00 60.00 Sym.group:  191
1.0
    2.950090     5.084451    -0.037932
   -2.928716     5.097045    -0.006200
    0.015379     0.012309     2.838433
  Ba   H
   4   8
Direct
    0.950479     0.242235     0.353372
    0.450531     0.242179     0.353327
    0.950525     0.742175     0.353342
    0.450472     0.742243     0.353282
    0.117145     0.408881     0.853260
    0.283849     0.575518     0.853256
    0.283751     0.075609     0.853250
    0.783844     0.575468     0.853307
    0.617024     0.408987     0.853256
    0.617271     0.908789     0.853307
    0.783814     0.075582     0.853280
    0.117043     0.908990     0.853341
EA2988  3.935  3.137  3.890 67.24 90.50 66.91 Sym.group:   71
1.0
    3.932800     0.134692    -0.017629
    1.132563     2.910000     0.299103
   -0.060811     1.268118     3.676593
  Ba   H
   1  12
Direct
    0.998970     0.388200     0.452358
    0.577047     0.131680     0.881248
    0.584787     0.632187     0.886446
    0.415950     0.145502     0.020881
    0.614570     0.038314     0.544581
    0.421605     0.645906     0.022313
    0.448933     0.596445     0.593242
    0.099988     0.024609     0.070309
    0.549231     0.177197     0.312931
    0.136241     0.599742     0.899269
    0.899026     0.748907     0.835179
    0.863566     0.171304     0.005447
    0.381364     0.740033     0.362075
EA2756  4.009  3.871  3.118 113.69 112.54 92.38 Sym.group:   12
1.0
    2.797147    -1.247230    -2.586362
   -1.410495     2.577416    -2.519683
    1.228375     1.291779     2.558554
  Ba   H
   1  12
Direct
    0.736359     0.165251     0.926728
    0.322435     0.607093     0.687493
    0.150019     0.723583     0.165856
    0.633525     0.546386     0.567159
    0.838968     0.784122     0.286192
    0.192999     0.307159     0.724223
    0.279741     0.023543     0.129342
    0.875774     0.617627     0.721963
    0.147907     0.721870     0.659746
    0.324570     0.608833     0.193744
    0.352118     0.256275     0.280995
    0.596689     0.712828     0.131351
    0.120532     0.074360     0.572500
EA5149  3.855  2.955  5.703 104.43 75.06 112.42 Sym.group:   15
1.0
    2.689356    -2.761058     0.084473
    1.170958     2.710883    -0.116067
    0.405429    -1.489349     5.489856
  Ba   H
   2  12
Direct
    0.483904     0.581416     0.881321
    0.984944     0.578504     0.381101
    0.931927     0.242026     0.699084
    0.536873     0.917901     0.563331
    0.600572     0.876401     0.250709
    0.436141     0.135572     0.529716
    0.532864     0.539337     0.234091
    0.098417     0.772251     0.751763
    0.868240     0.283439     0.011685
    0.935898     0.620437     0.028312
    0.032666     0.024297     0.732684
    0.036091     0.972053     0.065245
    0.432802     0.187796     0.197203
    0.370365     0.387600     0.510666
EA7247  3.831  3.032  5.744 105.21 94.22 113.03 Sym.group:   44
1.0
    3.830363    -0.060860     0.069916
   -1.141710     2.809139    -0.009668
   -0.550576    -1.831758     5.416623
  Ba   H
   2  12
Direct
    0.150202     0.063171     0.913908
    0.650165     0.563158     0.413914
    0.311748     0.967562     0.560533
    0.075279     0.358662     0.582988
    0.229320     0.842784     0.389399
    0.729324     0.342803     0.889437
    0.821210     0.033490     0.188792
    0.321244     0.533513     0.688809
    0.186270     0.732383     0.217548
    0.811763     0.467575     0.060549
    0.686259     0.232383     0.717557
    0.532844     0.702922     0.810987
    0.575279     0.858673     0.083010
    0.032856     0.202931     0.310979
EA3218  3.977  3.977  3.190 66.38 66.37 89.19 Sym.group:   71
1.0
    2.389735    -1.542220     2.779295
   -1.583542     2.381554     2.763692
   -1.558507    -1.569093     2.298265
  Ba   H
   1  12
Direct
    0.168096     0.356949     0.674964
    0.722788     0.219328     0.466194
    0.591939     0.932206     0.422713
    0.305470     0.802198     0.883997
    0.030539     0.911638     0.466188
    0.743385     0.780686     0.422760
    0.592655     0.932939     0.927189
    0.262006     0.972708     0.320077
    0.783893     0.450866     0.320123
    0.613359     0.494257     0.884021
    0.073999     0.741122     0.029991
    0.744185     0.781466     0.927132
    0.552273     0.262721     0.030036
EA5148  4.040  4.040  4.525 116.36 116.36 90.30 Sym.group:  123
1.0
    4.039708     0.001970     0.023481
   -0.023285     4.039680     0.021883
   -2.028645    -2.039889     3.493021
  Ba   H
   2  12
Direct
    0.958364     0.589830     0.531871
    0.458363     0.089840     0.531826
    0.527318     0.020823     0.031888
    0.029064     0.160597     0.031877
    0.028592     0.519565     0.031897
    0.577909     0.709437     0.771103
    0.886284     0.017816     0.031883
    0.530367     0.661880     0.031902
    0.838677     0.970221     0.292659
    0.889306     0.658820     0.031864
    0.338678     0.470217     0.292662
    0.077904     0.209442     0.771102
    0.387563     0.519078     0.031861
    0.388070     0.160084     0.031898
EA4827  3.639  3.610  3.639 69.69 113.80 110.32 Sym.group:   12
1.0
    3.638511     0.029209    -0.025467
   -1.280397     3.374768     0.009931
   -1.452235     0.790581     3.241277
  Ba   H
   1  12
Direct
    0.226166     0.158650     0.068554
    0.724178     0.404334     0.570521
    0.654021     0.718777     0.251368
    0.592589     0.181300     0.702078
    0.409008     0.598494     0.496427
    0.859716     0.135942     0.435011
    0.283614     0.835136     0.698611
    0.856254     0.482098     0.126020
    0.168694     0.482130     0.438460
    0.728140     0.912919     0.566573
    0.596065     0.835147     0.011069
    0.798314     0.598471     0.885727
    0.043313     0.718760     0.640650
EA9028  3.099  3.101  2.815 90.00 89.96 119.71 Sym.group:   36
1.0
    3.098788    -0.022571    -0.026557
   -1.517299     2.704040     0.002950
    0.026187     0.011500     2.815197
   H
  12
Direct
    0.090044     0.330449     0.482054
    0.172070     0.663672     0.027001
    0.419391     0.684945     0.993248
    0.331307     0.345164     0.535415
    0.419317     0.171264     0.046873
    0.090782     0.842184     0.544492
    0.852958     0.604830     0.493109
    0.654873     0.408168     0.990847
    0.930656     0.167888     0.982370
    0.913033     0.925373     0.035898
    0.597117     0.087112     0.526044
    0.575771     0.839472     0.492715
EA4915  3.069  3.073  3.307 62.46 81.28 90.21 Sym.group:    2
1.0
    3.061447    -0.037168     0.205375
   -0.002434     3.043660     0.421484
    0.308275     1.115084     3.098076
   H
  14
Direct
    0.093963     0.883311     0.829118
    0.258024     0.191906     0.278390
    0.600257     0.972788     0.596030
    0.483052     0.624273     0.131283
    0.663988     0.508932     0.042749
    0.816774     0.641915     0.492933
    0.002932     0.533002     0.402972
    0.394277     0.264246     0.704439
    0.677668     0.016137     0.065851
    0.888446     0.176122     0.935323
    0.808958     0.138823     0.469180
    0.225227     0.960388     0.258157
    0.404471     0.532094     0.646049
    0.074212     0.613923     0.893871
EA7956  3.799  2.986  5.653 100.66 85.77 68.46 Sym.group:    2
1.0
    3.798306    -0.012556    -0.047290
    1.106101     2.772449     0.065155
    0.480236    -1.445375     5.444050
  Ba   H
   2  12
Direct
    0.008253     0.684459     0.807161
    0.490769     0.271500     0.307269
    0.393837     0.077031     0.936165
    0.872956     0.600389     0.437986
    0.936976     0.524591     0.149515
    0.546962     0.103704     0.655688
    0.052386     0.095487     0.496703
    0.626094     0.355896     0.676340
    0.467674     0.754893     0.983457
    0.031641     0.199997     0.131145
    0.446655     0.860737     0.617805
    0.952107     0.852547     0.458733
    0.105149     0.878330     0.178291
    0.561635     0.430449     0.964648
EA7668  3.830  5.512  3.760 86.19 118.05 82.89 Sym.group:    2
1.0
    3.829825    -0.012120     0.060521
    0.700829     5.466919    -0.080751
   -1.818321     0.533247     3.248019
  Ba   H
   2  18
Direct
    0.712074     0.148018     0.832224
    0.350948     0.733949     0.915701
    0.979540     0.677510     0.305878
    0.163208     0.322596     0.305320
    0.724577     0.386866     0.307621
    0.123956     0.392814     0.700671
    0.535917     0.316883     0.234749
    0.842331     0.572370     0.833321
    0.770679     0.917563     0.413754
    0.009091     0.061880     0.490236
    0.220702     0.309588     0.914620
    0.373782     0.081145     0.196271
    0.083487     0.204419     0.442066
    0.527106     0.565048     0.513177
    0.939056     0.489133     0.047225
    0.899803     0.559343     0.442613
    0.689240     0.800796     0.551659
    0.292352     0.964377     0.334172
    0.338445     0.495069     0.440297
    0.053908     0.820044     0.257671
EA3637  3.646  3.646  5.622 101.81 78.20 65.38 Sym.group:   12
1.0
    3.645709    -0.042022     0.026405
    1.556873     3.296963     0.003148
    1.091534    -1.792441     5.215691
  Ba   H
   2  15
Direct
    0.468896     0.751848     0.459960
    0.209994     0.010644     0.007485
    0.843378     0.700954     0.083345
    0.087928     0.629850     0.233709
    0.159265     0.385273     0.383817
    0.519631     0.377209     0.083604
    0.590981     0.132622     0.233707
    0.065575     0.411330     0.534818
    0.809335     0.155508     0.535100
    0.835525     0.061535     0.384083
    0.883647     0.771325     0.747539
    0.229741     0.425327     0.719615
    0.869564     0.606974     0.932330
    0.613332     0.351143     0.932602
    0.839453     0.381237     0.733713
    0.449152     0.337141     0.747804
    0.795257     0.991142     0.719881
EA8996  4.078  4.078  4.576 63.67 63.67 90.27 Sym.group:  123
1.0
    4.078177    -0.021772    -0.014170
    0.002579     4.078002     0.046023
    2.052465     1.987907     3.574036
  Ba   H
   2  12
Direct
    0.344228     0.051494     0.533914
    0.844198     0.551481     0.533972
    0.914358     0.121596     0.033987
    0.415296     0.622601     0.033965
    0.913841     0.481855     0.033932
    0.724707     0.931986     0.772940
    0.274056     0.481372     0.033928
    0.274566     0.121099     0.033928
    0.463695     0.670974     0.294942
    0.775537     0.620130     0.033955
    0.963688     0.170968     0.294947
    0.224707     0.431985     0.772941
    0.773104     0.980348     0.033896
    0.412833     0.982785     0.033958
EA4677  3.642  3.642  5.567 100.94 100.94 114.79 Sym.group:   69
1.0
    3.641697     0.021581     0.018911
   -1.546640     3.296800     0.041443
   -1.073510    -1.736156     5.179240
  Ba   H
   2  15
Direct
    0.490257     0.669886     0.220987
    0.758977     0.938684     0.765421
    0.786324     0.294445     0.140368
    0.154224     0.075234     0.291516
    0.374249     0.054630     0.993163
    0.124617     0.304272     0.493180
    0.134481     0.642616     0.846013
    0.895565     0.333864     0.291492
    0.177283     0.924966     0.493830
    0.745292     0.356931     0.493838
    0.071952     0.683577     0.492520
    0.462934     0.314104     0.846009
    0.114759     0.965928     0.140340
    0.095030     0.533340     0.694873
    0.353659     0.274688     0.694853
    0.874980     0.553903     0.993169
    0.503933     0.251611     0.492510
EA8559  1.800  3.351  4.199 76.91 89.97 74.44 Sym.group:   36
1.0
    1.799968     0.023305     0.002482
    0.857178     3.239013    -0.039672
   -0.016966     1.038113     4.068479
   H
  12
Direct
    0.772671     0.821140     0.659634
    0.320023     0.716865     0.909077
    0.426825     0.488050     0.994034
    0.645941     0.050440     0.576323
    0.985316     0.379901     0.600743
    0.102629     0.154327     0.326377
    0.341908     0.678689     0.447783
    0.977319     0.383824     0.243629
    0.674050     0.012853     0.114238
    0.000347     0.346148     0.781481
    0.646409     0.046881     0.933636
    0.313473     0.714289     0.266969
EA4246  3.837  5.573  2.986 105.34 112.88 94.89 Sym.group:    8
1.0
    2.698281    -0.817683    -2.602445
   -1.682014     4.680544    -2.514362
    1.138963     0.875076     2.617648
  Ba   H
   2  11
Direct
    0.118379     0.310292     0.445523
    0.596719     0.826603     0.940867
    0.690480     0.299879     0.725674
    0.483323     0.207023     0.076976
    0.984800     0.726967     0.585520
    0.071098     0.996980     0.765759
    0.554839     0.461147     0.238755
    0.133391     0.614069     0.100270
    0.168027     0.787640     0.206220
    0.252200     0.957228     0.329938
    0.632738     0.120999     0.601644
    0.768624     0.466812     0.847744
    0.783030     0.592695     0.419218
EA8033  5.836  8.924  7.411 107.62 67.23 99.79 Sym.group:  194
1.0
    5.832663    -0.180440     0.042797
   -1.242746     8.834533    -0.197110
    2.767560    -1.727921     6.654382
  Ba
  20
Direct
    0.509512     0.732485     0.705232
    0.609527     0.532493     0.905228
    0.310352     0.799124     0.137842
    0.610358     0.199131     0.737840
    0.209529     0.332492     0.105231
    0.009524     0.732493     0.705229
    0.510351     0.399125     0.537841
    0.410361     0.599131     0.337839
    0.109517     0.532484     0.905233
    0.409523     0.932493     0.505230
    0.709518     0.332485     0.105231
    0.810361     0.799131     0.137840
    0.909512     0.932486     0.505232
    0.010359     0.399132     0.537842
    0.910352     0.599125     0.337842
    0.110349     0.199124     0.737844
    0.809527     0.132493     0.305228
    0.210359     0.999131     0.937841
    0.710350     0.999124     0.937842
    0.309515     0.132485     0.305234
EA4016  3.087  3.726  4.280 115.81 98.04 71.08 Sym.group:    8
1.0
    3.072568     0.195575     0.225404
    0.969843     3.591618     0.214978
   -0.751154    -1.953532     3.732968
  Ba   H
   1  13
Direct
    0.215509     0.400555     0.703181
    0.561418     0.896626     0.878697
    0.762188     0.048640     0.298169
    0.176191     0.178069     0.120957
    0.555419     0.722282     0.532649
    0.747657     0.811212     0.489920
    0.920842     0.991766     0.696917
    0.675151     0.685811     0.116455
    0.251258     0.966677     0.159194
    0.752375     0.027244     0.914175
    0.675252     0.272436     0.290201
    0.177946     0.758911     0.284487
    0.252015     0.509160     0.245567
    0.761968     0.453337     0.108093
EA7805  6.777  7.331  7.403 84.91 65.04 93.37 Sym.group:  194
1.0
    6.776755     0.030177     0.039905
   -0.462666     7.316504    -0.063286
    3.080099     0.910844     6.669838
  Ba
  20
Direct
    0.180614     0.449132     0.308004
    0.980608     0.249135     0.708005
    0.980360     0.581945     0.875719
    0.380358     0.481944     0.575721
    0.780361     0.381946     0.275719
    0.180609     0.949135     0.808006
    0.580365     0.681950     0.175716
    0.780617     0.049138     0.108003
    0.980608     0.749129     0.208009
    0.380609     0.649134     0.908003
    0.780368     0.881942     0.775716
    0.980363     0.081943     0.375720
    0.380616     0.149136     0.408003
    0.580360     0.181938     0.675722
    0.780608     0.549130     0.608003
    0.380364     0.981940     0.075720
    0.580609     0.349135     0.008005
    0.180366     0.781946     0.475717
    0.180366     0.281944     0.975720
    0.580610     0.849132     0.508006
EA4391  5.823  3.045  4.203 89.98 90.01 90.00 Sym.group:   51
1.0
    5.822270    -0.033192     0.052890
    0.017263     3.044464     0.021219
   -0.039078    -0.027949     4.202598
  Ba   H
   2  20
Direct
    0.293569     0.979081     0.364829
    0.793636     0.978945     0.637372
    0.576306     0.479153     0.354229
    0.001413     0.478801     0.897888
    0.148037     0.103567     0.860371
    0.939187     0.104140     0.141648
    0.148026     0.853919     0.860590
    0.939176     0.854498     0.141860
    0.439200     0.853963     0.860598
    0.648011     0.104089     0.141646
    0.439140     0.103610     0.860349
    0.648070     0.854449     0.141890
    0.010526     0.479158     0.354236
    0.793385     0.479029     0.031761
    0.585609     0.478785     0.897298
    0.794051     0.479258     0.244272
    0.510896     0.478872     0.647992
    0.293814     0.479014     0.970475
    0.085797     0.479234     0.104335
    0.293152     0.478782     0.757965
    0.076675     0.478869     0.647991
    0.501597     0.479246     0.104930
EA9396  5.407  3.856  3.872 116.97 100.92 79.13 Sym.group:    2
1.0
    5.406973     0.030086    -0.061219
    0.706700     3.790575     0.059527
   -0.685604    -1.712062     3.404518
  Ba   H
   2  18
Direct
    0.027743     0.311850     0.768196
    0.465513     0.748344     0.367635
    0.413538     0.079483     0.003744
    0.323239     0.640526     0.778471
    0.748276     0.021754     0.845104
    0.610399     0.214584     0.905731
    0.405693     0.401124     0.678158
    0.325984     0.204180     0.192285
    0.170019     0.419672     0.357368
    0.861031     0.814240     0.694541
    0.632227     0.245947     0.441291
    0.079699     0.980685     0.132092
    0.859052     0.527088     0.326481
    0.882854     0.845606     0.230098
    0.167267     0.856025     0.943580
    0.643329     0.760400     0.923622
    0.849932     0.299871     0.212254
    0.634209     0.533050     0.809324
    0.744978     0.038449     0.290733
    0.087565     0.659079     0.457695
EA8454  3.752  4.475  5.197 82.07 79.42 113.96 Sym.group:    2
1.0
    3.745867     0.162094    -0.142525
   -1.987927     4.006720     0.145205
    1.093295     1.163756     4.945640
  Ba   H
   2  22
Direct
    0.248769     0.682052     0.231705
    0.288347     0.364360     0.768755
    0.617616     0.469453     0.364344
    0.661462     0.029168     0.847965
    0.344884     0.871144     0.758872
    0.919480     0.576953     0.636114
    0.875646     0.017248     0.152492
    0.778035     0.187028     0.221722
    0.367918     0.002699     0.515803
    0.903190     0.751689     0.678612
    0.394449     0.213846     0.137627
    0.142649     0.832575     0.862830
    0.759078     0.859388     0.778731
    0.749146     0.802637     0.429586
    0.169198     0.043712     0.484662
    0.903859     0.886969     0.055884
    0.633239     0.159450     0.944573
    0.938470     0.167697     0.491946
    0.192217     0.175273     0.241592
    0.780366     0.442077     0.986868
    0.787962     0.243772     0.570869
    0.598646     0.878720     0.508507
    0.633923     0.294716     0.321841
    0.756737     0.604336     0.013592
EA9630  4.047  3.958  4.382 64.20 68.99 96.56 Sym.group:    2
1.0
    4.046654    -0.060586     0.053935
   -0.392568     3.937680    -0.073269
    1.556632     2.136878     3.494152
  Ba   H
   1  20
Direct
    0.703927     0.861266     0.256107
    0.342568     0.582990     0.864478
    0.651809     0.285667     0.741346
    0.099601     0.510068     0.276839
    0.540290     0.197363     0.527663
    0.617548     0.757788     0.823268
    0.791985     0.966016     0.688011
    0.487045     0.380999     0.174324
    0.131311     0.879237     0.476950
    0.368837     0.001447     0.651432
    0.922845     0.342385     0.336455
    0.309259     0.213467     0.235656
    0.149348     0.322260     0.661290
    0.756836     0.437290     0.770607
    0.318383     0.063428     0.007003
    0.089666     0.660155     0.505082
    0.066779     0.140376     0.647859
    0.259043     0.401025     0.851613
    0.869331     0.526176     0.983751
    0.040470     0.722605     0.860126
    0.276982     0.844747     0.034235
EA7370  3.879  3.901  4.289 89.99 90.35 113.14 Sym.group:   44
1.0
    3.872391     0.110014     0.190717
   -1.630037     3.541556    -0.121272
   -0.238339     0.038039     4.281752
  Ba   H
   2  12
Direct
    0.456622     0.094969     0.128942
    0.956629     0.594987     0.628937
    0.382303     0.418731     0.753834
    0.485281     0.610978     0.900724
    0.968639     0.119155     0.896652
    0.778327     0.019509     0.751303
    0.278325     0.519512     0.251303
    0.468640     0.619156     0.396651
    0.307541     0.217303     0.613405
    0.807543     0.717303     0.113406
    0.882302     0.918728     0.253834
    0.073473     0.444895     0.110626
    0.573473     0.944896     0.610626
    0.985278     0.110974     0.400721
EA5286  3.847  5.553  2.975 105.07 112.70 95.36 Sym.group:    8
1.0
    2.734131    -0.781162    -2.591246
   -1.749193     4.650958    -2.478087
    1.113371     0.887036     2.611955
  Ba   H
   2  11
Direct
    0.103151     0.314595     0.465959
    0.615610     0.802131     0.966466
    0.665805     0.163344     0.673981
    0.005955     0.707491     0.615251
    0.497258     0.210926     0.112272
    0.290820     0.083747     0.946399
    0.550710     0.467046     0.266304
    0.790728     0.585020     0.449118
    0.140555     0.631144     0.142395
    0.225534     0.898783     0.319018
    0.433821     0.032248     0.489273
    0.741659     0.425732     0.841144
    0.047270     0.972372     0.766723
EA4480  3.919  4.275  2.955 69.79 111.96 114.51 Sym.group:   12
1.0
    2.808740     0.567811    -2.672896
   -0.682925     3.331846     2.590323
    1.118917    -0.544523     2.680134
  Ba   H
   1  12
Direct
    0.554209     0.725966     0.139840
    0.984793     0.285695     0.074769
    0.742950     0.223438     0.484154
    0.365564     0.228522     0.795639
    0.011789     0.846281     0.806902
    0.005306     0.050712     0.701974
    0.593103     0.309314     0.868799
    0.103295     0.401181     0.577910
    0.197362     0.898608     0.375585
    0.123654     0.166278     0.204959
    0.515444     0.142732     0.411043
    0.096592     0.605553     0.472985
    0.911098     0.553385     0.904269
EA9036  2.751  4.208  4.208 105.56 70.95 109.04 Sym.group:   64
1.0
    2.750730    -0.031585    -0.001688
   -1.327303     3.983165    -0.278145
    1.371062    -0.459531     3.951940
   H
  24
Direct
    0.357050     0.391631     0.614003
    0.181549     0.731681     0.310725
    0.248385     0.672284     0.117275
    0.836412     0.623890     0.891475
    0.460758     0.745972     0.765597
    0.929846     0.455825     0.535323
    0.429099     0.957412     0.035291
    0.495707     0.150268     0.097125
    0.208852     0.000200     0.520315
    0.293049     0.450374     0.805745
    0.959271     0.246693     0.265234
    0.040438     0.961349     0.817280
    0.584618     0.876030     0.643538
    0.997328     0.648729     0.595954
    0.334603     0.124327     0.392187
    0.791550     0.952283     0.305671
    0.107154     0.152846     0.875420
    0.745504     0.172166     0.617803
    0.543217     0.462728     0.317417
    0.710820     0.500795     0.020579
    0.679641     0.231095     0.811070
    0.858286     0.890766     0.114386
    0.088627     0.376121     0.142652
    0.612412     0.654338     0.375545
EA6621  3.899  4.228  4.014 115.40 78.29 75.01 Sym.group:    1
1.0
    3.899284     0.000497     0.000968
    1.093270     4.084471    -0.007120
    0.813816    -1.994335     3.387516
  Ba   H
   1  19
Direct
    0.871454     0.357689     0.219410
    0.865028     0.856322     0.725852
    0.344823     0.732541     0.276471
    0.526390     0.970689     0.440911
    0.463275     0.097517     0.102691
    0.189326     0.338005     0.629432
    0.280799     0.454391     0.552658
    0.937628     0.988283     0.604384
    0.063831     0.125694     0.567550
    0.661213     0.581179     0.871272
    0.538092     0.362146     0.808111
    0.331221     0.782079     0.740125
    0.797865     0.701494     0.847556
    0.410698     0.923294     0.703441
    0.726626     0.968911     0.381423
    0.463315     0.248411     0.897867
    0.207614     0.738709     0.006433
    0.383646     0.975943     0.169812
    0.278647     0.607269     0.347260
    0.000707     0.756625     0.066156
EA7055  4.491  3.352  4.489 109.48 95.84 70.40 Sym.group:   12
1.0
    3.376584     2.961714     0.013200
   -1.236856     3.114998     0.001204
    0.585918    -1.379804     4.231618
  Ba   H
   1  22
Direct
    0.107859     0.134471     0.884944
    0.291121     0.435805     0.571213
    0.602798     0.251015     0.886922
    0.800827     0.840100     0.070975
    0.107875     0.634476     0.384970
    0.416231     0.429987     0.699200
    0.115555     0.015924     0.379890
    0.798350     0.638752     0.694884
    0.481237     0.014101     0.238691
    0.299978     0.636689     0.193032
    0.735221     0.254351     0.530485
    0.753113     0.016633     0.513072
    0.417262     0.629930     0.074804
    0.461937     0.252703     0.257534
    0.924890     0.831886     0.199896
    0.743342     0.338769     0.251102
    0.613006     0.017119     0.883194
    0.915638     0.632428     0.576751
    0.472288     0.930162     0.518646
    0.100329     0.253447     0.389951
    0.739038     0.562258     0.248720
    0.607907     0.634379     0.884921
    0.476426     0.706653     0.520787
EA5871  5.678  5.163  2.955 90.00 90.00 90.00 Sym.group:  191
1.0
    5.677608     0.004502    -0.021125
   -0.004430     5.161780    -0.088851
    0.010953     0.050869     2.954241
  Ba   H
   4   8
Direct
    0.951195     0.190333     0.160731
    0.451150     0.690324     0.660424
    0.951179     0.690318     0.660396
    0.451133     0.190327     0.160708
    0.701178     0.857910     0.160387
    0.701157     0.522750     0.160387
    0.701179     0.022691     0.660692
    0.201180     0.522691     0.160385
    0.201158     0.857970     0.160388
    0.201176     0.357909     0.660693
    0.201155     0.022751     0.660694
    0.701155     0.357971     0.660694
EA9472  3.810  5.628  3.045 79.45 68.08 94.32 Sym.group:    2
1.0
    3.809161     0.093079     0.027228
   -0.559290     5.596783    -0.194073
    1.098951     0.765165     2.735204
  Ba   H
   2  12
Direct
    0.147106     0.040505     0.874213
    0.596394     0.543782     0.495107
    0.222119     0.664330     0.115784
    0.778906     0.308245     0.980927
    0.141157     0.725735     0.434375
    0.045052     0.686308     0.757110
    0.521470     0.920172     0.253789
    0.964055     0.275790     0.388558
    0.545431     0.212368     0.129052
    0.601913     0.858832     0.936210
    0.749897     0.161937     0.525155
    0.699069     0.897413     0.613213
    0.196920     0.372664     0.240591
    0.993387     0.422078     0.844252
EA5761  4.051  5.801  4.051 70.54 87.35 109.46 Sym.group:  191
1.0
    4.050379    -0.006066     0.079283
   -1.925956     5.471885     0.037989
    0.115519     1.445566     3.782713
  Ba   H
   4   8
Direct
    0.797362     0.011875     0.634345
    0.297451     0.011898     0.134359
    0.797426     0.511906     0.134331
    0.297477     0.511938     0.634353
    0.714612     0.845277     0.217246
    0.380363     0.678510     0.051456
    0.880466     0.178523     0.051367
    0.380234     0.178539     0.551406
    0.214334     0.845273     0.717333
    0.880493     0.678603     0.551288
    0.214410     0.345236     0.217431
    0.714531     0.345281     0.717242
EA4374  4.067  5.826  4.067 109.43 87.27 70.57 Sym.group:  191
1.0
    4.067052    -0.047982     0.020862
    2.002685     5.471271     0.037807
    0.156115    -1.524041     3.767839
  Ba   H
   4   8
Direct
    0.810662     0.832450     0.483397
    0.310626     0.332431     0.483329
    0.310665     0.832458     0.983393
    0.810644     0.332434     0.983348
    0.727644     0.499032     0.566306
    0.893632     0.665834     0.900434
    0.393641     0.665837     0.400448
    0.393599     0.165835     0.900353
    0.727718     0.999051     0.066359
    0.893567     0.165818     0.400391
    0.227681     0.499054     0.066276
    0.227723     0.999052     0.566369
EA7796  3.613  3.606  5.482 100.51 79.45 65.16 Sym.group:   12
1.0
    3.611009    -0.117571     0.012688
    1.620629     3.221185    -0.033740
    0.936138    -1.536100     5.178667
  Ba   H
   2  15
Direct
    0.373519     0.849615     0.455232
    0.089053     0.135949     0.002456
    0.385424     0.511694     0.079341
    0.983562     0.742154     0.227835
    0.752982     0.142509     0.377019
    0.709850     0.842778     0.080650
    0.479248     0.243175     0.229846
    0.959677     0.520117     0.530973
    0.706930     0.259113     0.529786
    0.077369     0.473631     0.378383
    0.659598     0.117350     0.736753
    0.106451     0.563041     0.736245
    0.755897     0.726183     0.927903
    0.503136     0.465173     0.926751
    0.731381     0.492690     0.728864
    0.356337     0.422326     0.721432
    0.803226     0.868061     0.720923
EA1717  3.818  3.933  3.053 67.52 113.57 111.09 Sym.group:   12
1.0
    3.817120     0.048925    -0.063865
   -1.408342     2.698656     2.490320
   -1.162528    -1.243742     2.534196
  Ba   H
   1  12
Direct
    0.061819     0.935013     0.060936
    0.156521     0.550666     0.799470
    0.205293     0.393653     0.404829
    0.680117     0.037967     0.320014
    0.518188     0.079044     0.717276
    0.500868     0.521824     0.234958
    0.499923     0.520189     0.741039
    0.443477     0.832064     0.801675
    0.967075     0.319364     0.322225
    0.622724     0.348209     0.886733
    0.623682     0.349846     0.380656
    0.605408     0.790990     0.404426
    0.918317     0.476379     0.716881
EA6093  3.012  3.874  5.698 94.47 76.37 67.17 Sym.group:    1
1.0
    3.011716    -0.019413    -0.001205
    1.526039     3.559998     0.046914
    1.337636    -1.127694     5.423178
  Ba   H
   2  12
Direct
    0.794202     0.634118     0.807637
    0.334234     0.104270     0.311302
    0.942380     0.729103     0.425912
    0.694711     0.499819     0.187508
    0.660307     0.167468     0.628318
    0.016259     0.041416     0.979444
    0.107435     0.707533     0.133047
    0.433695     0.241748     0.935537
    0.238226     0.659294     0.464152
    0.131601     0.010416     0.691633
    0.271820     0.465714     0.046735
    0.852974     0.279549     0.075747
    0.558738     0.548916     0.484441
    0.407932     0.093428     0.666427
EA7392  2.794  5.773  5.042 90.00 90.00 90.00 Sym.group:  191
1.0
    2.793246    -0.039481    -0.021767
    0.080961     5.771530    -0.076482
    0.040222     0.066132     5.041260
  Ba   H
   4   8
Direct
    0.946016     0.246744     0.473808
    0.946027     0.996778     0.973804
    0.946002     0.496817     0.973797
    0.946000     0.746711     0.473803
    0.446008     0.246804     0.141275
    0.446022     0.496714     0.641255
    0.446009     0.996718     0.306334
    0.446017     0.496714     0.306316
    0.445997     0.746795     0.141262
    0.446026     0.746806     0.806324
    0.446007     0.246798     0.806329
    0.446004     0.996711     0.641281
EA5196  4.506  3.368  4.513 109.78 96.09 70.35 Sym.group:    1
1.0
    4.503400    -0.116440     0.075147
    1.212870     3.141008     0.092959
   -0.588885    -1.534964     4.203212
  Ba   H
   1  22
Direct
    0.106644     0.136895     0.883550
    0.313085     0.410925     0.605415
    0.600386     0.258371     0.916249
    0.797240     0.839894     0.058946
    0.109288     0.635349     0.383887
    0.447829     0.469118     0.714119
    0.080564     0.054694     0.382384
    0.801933     0.631290     0.682135
    0.480327     0.999635     0.227721
    0.282923     0.649441     0.209836
    0.735011     0.240153     0.524353
    0.747891     0.009120     0.518007
    0.392601     0.631187     0.081170
    0.476352     0.233698     0.251150
    0.922733     0.834910     0.185570
    0.740367     0.351682     0.251368
    0.613412     0.013218     0.856529
    0.927574     0.623971     0.572524
    0.470178     0.926315     0.519894
    0.133882     0.252382     0.392181
    0.750803     0.569829     0.255704
    0.609571     0.638102     0.886606
    0.455776     0.703570     0.502801
EA9394  4.424  2.990  5.686 90.00 90.01 90.00 Sym.group:   59
1.0
    4.424184     0.003026    -0.013712
   -0.001971     2.989950     0.024223
    0.016425    -0.046045     5.685675
  Ba   H
   2  20
Direct
    0.293486     0.730598     0.246114
    0.794195     0.230547     0.757796
    0.462619     0.730560     0.880389
    0.559331     0.230599     0.438822
    0.637427     0.230594     0.296969
    0.385222     0.230583     0.973781
    0.701631     0.730556     0.029530
    0.450298     0.730542     0.706523
    0.883067     0.730557     0.031362
    0.203704     0.230578     0.973158
    0.949679     0.230590     0.296507
    0.138016     0.730545     0.707814
    0.125348     0.730558     0.880725
    0.793535     0.730607     0.278079
    0.027733     0.230599     0.438522
    0.794049     0.730577     0.413514
    0.625054     0.230580     0.123414
    0.294178     0.230530     0.725865
    0.528379     0.730539     0.564907
    0.293882     0.230557     0.590483
    0.962289     0.230576     0.123171
    0.060067     0.730541     0.565464
[...]
    0.911932     0.634616     0.915790
    0.883322     0.045474     0.860399
    0.158943     0.832655     0.297374
    0.466272     0.707773     0.750945
    0.956752     0.692948     0.333628
    0.116041     0.800928     0.855206
EA4171  5.608  3.877  3.896 114.61 101.08 79.01 Sym.group:    1
1.0
    5.606521     0.056929    -0.095956
    0.701262     3.812518     0.035054
   -0.672726    -1.557929     3.506539
  Ba   H
   2  18
Direct
    0.004775     0.295837     0.743399
    0.439872     0.710757     0.345053
    0.309680     0.168058     0.151080
    0.379251     0.007985     0.932636
    0.891446     0.860787     0.177329
    0.757453     0.973029     0.253224
    0.341457     0.452568     0.694148
    0.619961     0.767423     0.915230
    0.188413     0.271972     0.295886
    0.869536     0.765949     0.586827
    0.460310     0.310973     0.738826
    0.086421     0.909939     0.047765
    0.782345     0.895798     0.750322
    0.618208     0.155281     0.883712
    0.177097     0.806322     0.869573
    0.859001     0.458803     0.273812
    0.631621     0.546953     0.812987
    0.775153     0.297677     0.154782
    0.623715     0.195188     0.409563
    0.072008     0.654201     0.435403
EA1710  4.039  2.833  3.852 111.39 83.22 69.81 Sym.group:   12
1.0
    3.143444     2.533735     0.105185
   -0.904209     2.667659     0.305882
    1.554536    -1.338708     3.260085
  Ba   H
   1  12
Direct
    0.065288     0.866183     0.000198
    0.039550     0.171944     0.585487
    0.320906     0.384784     0.293119
    0.565836     0.497567     0.492432
    0.320264     0.998628     0.514161
    0.583411     0.982709     0.749209
    0.498440     0.145788     0.993278
    0.564586     0.234777     0.508068
    0.090033     0.561117     0.415341
    0.546485     0.750380     0.251969
    0.631809     0.587132     0.007883
    0.809700     0.734151     0.486568
    0.808919     0.348319     0.708005
EA2996  3.834  5.428  2.926 89.75 112.21 89.65 Sym.group:    1
1.0
    3.826748     0.237345    -0.037408
   -0.305050     5.413477    -0.249733
   -1.086355     0.077071     2.715529
  Ba   H
   2  11
Direct
    0.061310     0.327237     0.990809
    0.698078     0.809678     0.809829
    0.662047     0.145689     0.341529
    0.120904     0.651051     0.515789
    0.484625     0.176612     0.666042
    0.553690     0.161264     0.993491
    0.462281     0.458019     0.725917
    0.545871     0.466233     0.483283
    0.279504     0.686988     0.100952
    0.200780     0.971187     0.324627
    0.273997     0.943441     0.062754
    0.651534     0.487060     0.245694
    0.099910     0.983019     0.556489
EA1504  4.131  5.923  4.131 70.72 86.93 109.28 Sym.group:  191
1.0
    4.130563     0.010054     0.042817
   -1.969804     5.585743     0.041135
    0.177907     1.480623     3.852218
  Ba   H
   4   8
Direct
    0.788369     0.901028     0.649079
    0.788305     0.400976     0.149023
    0.288361     0.900996     0.149096
    0.288250     0.400978     0.648952
    0.871232     0.067472     0.066264
    0.205516     0.734517     0.731971
    0.705289     0.234499     0.731861
    0.371233     0.567493     0.066047
    0.371244     0.067504     0.566253
    0.871019     0.567495     0.566141
    0.205507     0.234498     0.231773
    0.705511     0.734484     0.231984
EA3556  3.050  3.859  5.609 106.65 74.55 113.17 Sym.group:   12
1.0
    3.045863    -0.036972     0.145206
   -1.473537     3.566180    -0.071435
    1.226989    -1.124884     5.356446
  Ba   H
   2  11
Direct
    0.444673     0.847213     0.437800
    0.091424     0.641659     0.941894
    0.434829     0.207846     0.819933
    0.168883     0.229773     0.370298
    0.883366     0.014793     0.730790
    0.748407     0.097372     0.086230
    0.267956     0.244320     0.189942
    0.652821     0.474212     0.648881
    0.367114     0.259171     0.009688
    0.728472     0.438308     0.462817
    0.807618     0.050530     0.916856
    0.787698     0.391472     0.293440
    0.101153     0.280939     0.559926
EA1106  9.001  5.839  6.880 91.03 105.36 99.43 Sym.group:    1
1.0
    8.983779    -0.427901     0.348795
   -0.680963     5.799133    -0.032812
   -2.095680    -0.333307     6.544741
  Ba
  20
Direct
    0.936627     0.546468     0.817061
    0.535613     0.954356     0.209986
    0.066924     0.328640     0.184389
    0.467446     0.441910     0.783234
    0.866870     0.053768     0.387285
    0.337059     0.653990     0.412829
    0.066825     0.828694     0.184357
    0.467609     0.942027     0.783292
    0.135730     0.862542     0.611743
    0.665515     0.244863     0.581557
    0.936586     0.046392     0.816981
    0.535599     0.454235     0.210054
    0.267942     0.635543     0.986341
    0.735217     0.256154     0.012762
    0.735075     0.756151     0.012691
    0.267774     0.135562     0.986403
    0.337082     0.153891     0.412845
    0.665522     0.744852     0.581507
    0.866871     0.553687     0.387327
    0.135692     0.362703     0.611690
EA3574  3.700  3.723  3.679 114.17 112.58 65.30 Sym.group:    1
1.0
    3.700151    -0.046311     0.007648
    1.597610     3.362437    -0.021974
   -1.431666    -0.966136     3.248628
  Ba   H
   1  11
Direct
    0.982432     0.478795     0.270412
    0.379356     0.861062     0.332728
    0.602267     0.020032     0.050073
    0.616350     0.125857     0.290611
    0.235087     0.782200     0.057716
    0.204285     0.019756     0.671523
    0.390458     0.383934     0.859997
    0.961032     0.125871     0.632440
    0.917141     0.861167     0.876029
    0.534782     0.171160     0.721886
    0.634972     0.454708     0.615879
    0.539175     0.707474     0.702311
EA3046  2.938  3.966  5.024 110.63 87.89 101.31 Sym.group:    1
1.0
    2.922272    -0.288634     0.094276
   -0.399077     3.940602     0.205124
   -0.163071    -2.036685     4.589356
  Ba   H
   1  19
Direct
    0.410528     0.112794     0.168657
    0.921997     0.255829     0.873603
    0.829348     0.059855     0.505212
    0.395708     0.529027     0.976661
    0.036407     0.606733     0.830060
    0.284791     0.776790     0.422269
    0.368734     0.933650     0.719482
    0.388811     0.338012     0.624830
    0.560244     0.404545     0.881407
    0.017234     0.544006     0.128533
    0.828124     0.675902     0.204623
    0.745916     0.611867     0.523641
    0.194074     0.441675     0.604186
    0.088429     0.938011     0.501361
    0.946195     0.503445     0.468847
    0.656836     0.200175     0.603377
    0.865502     0.739131     0.843175
    0.544754     0.811925     0.723953
    0.032704     0.080541     0.789981
    0.528825     0.700025     0.340724
EA4435  3.863  4.308  4.197 106.71 83.20 114.81 Sym.group:    2
1.0
    3.862914     0.018978     0.045794
   -1.826351     3.901232    -0.035847
    0.454512    -1.082833     4.029622
  Ba   H
   2  15
Direct
    0.771054     0.165545     0.662707
    0.137890     0.771252     0.188110
    0.058444     0.254218     0.194915
    0.355537     0.292249     0.531148
    0.252017     0.185301     0.900163
    0.548525     0.347347     0.147420
    0.243963     0.343073     0.337342
    0.668663     0.250931     0.195169
    0.454517     0.468397     0.925490
    0.553410     0.644529     0.319690
    0.161778     0.977174     0.772248
    0.850525     0.682578     0.655886
    0.240412     0.685832     0.655653
    0.360445     0.589327     0.703431
    0.747189     0.959593     0.078537
    0.665000     0.593760     0.513441
    0.656939     0.751458     0.950625
EA8083  3.884  3.920  2.967 111.16 69.54 96.10 Sym.group:   12
1.0
    3.883263    -0.086740    -0.016147
   -0.330696     3.897629    -0.253352
    1.030200    -0.816752     2.659350
  Ba   H
   1  12
Direct
    0.081134     0.356978     0.114929
    0.639906     0.226572     0.766155
    0.551439     0.609149     0.283294
    0.520902     0.088747     0.369609
    0.611048     0.105162     0.945832
    0.351405     0.912947     0.376068
    0.213501     0.799946     0.768721
    0.810526     0.801255     0.852946
    0.641223     0.625673     0.859387
    0.522451     0.487813     0.463107
    0.332972     0.824249     0.949273
    0.828920     0.889536     0.279981
    0.948533     0.914020     0.460341
EA3194  4.078  4.508  4.521 99.83 63.28 64.32 Sym.group:    2
1.0
    0.259497     2.366978     3.310090
   -2.194544     3.930383    -0.232321
   -1.769034    -1.646775     3.820163
  Ba   H
   2  13
Direct
    0.837726     0.448369     0.417781
    0.837525     0.948242     0.918123
    0.352272     0.058957     0.788996
    0.350159     0.334707     0.511224
    0.348497     0.986320     0.496527
    0.361386     0.354537     0.863725
    0.837707     0.447771     0.917413
    0.531618     0.544304     0.126830
    0.702253     0.010703     0.500648
    0.144555     0.351990     0.708512
    0.972591     0.886314     0.335964
    0.325114     0.562270     0.324619
    0.325986     0.910619     0.339940
    0.314561     0.542445     0.972142
    0.322728     0.837853     0.047139
EA9711  3.799  4.856  3.711 67.72 119.13 100.75 Sym.group:    1
1.0
    3.798053     0.027924    -0.056160
   -0.886187     3.594880     3.141516
   -1.752619    -1.193300     3.045245
  Ba   H
   2  11
Direct
    0.182063     0.317993     0.924128
    0.682453     0.818322     0.684746
    0.689038     0.086689     0.061541
    0.366245     0.903615     0.966004
    0.313333     0.723210     0.094245
    0.039747     0.918985     0.355719
    0.995795     0.722937     0.366905
    0.516236     0.229966     0.662927
    0.169764     0.069546     0.538236
    0.841330     0.319993     0.249987
    0.700371     0.553535     0.311960
    0.164193     0.564341     0.293515
    0.539170     0.410812     0.514037
EA5571  3.038  4.303  4.402 106.28 90.24 73.68 Sym.group:    1
1.0
    3.036984    -0.044772     0.051428
    1.270345     4.110763    -0.018936
   -0.107905    -1.238509     4.222480
  Ba   H
   1  18
Direct
    0.353131     0.911652     0.132482
    0.366863     0.045837     0.668070
    0.579479     0.694622     0.584550
    0.772097     0.136355     0.522273
    0.654811     0.280341     0.445067
    0.167730     0.750893     0.540700
    0.934420     0.794047     0.446413
    0.152415     0.394846     0.460059
    0.241517     0.535610     0.719371
    0.442955     0.427735     0.808238
    0.855741     0.944809     0.793713
    0.867050     0.454885     0.884546
    0.145583     0.183166     0.658861
    0.745011     0.135043     0.856021
    0.983505     0.443720     0.328701
    0.777559     0.610636     0.692733
    0.429774     0.386398     0.073797
    0.992002     0.447200     0.054693
    0.576895     0.404060     0.236227
EA2717  6.793  5.794  6.787 90.00 93.98 90.00 Sym.group:   10
1.0
    6.792962    -0.012093    -0.077594
    0.010674     5.793861     0.031501
   -0.393924    -0.036109     6.775553
  Ba   H
  16   1
Direct
    0.619403     0.187553     0.943203
    0.951001     0.433141     0.116207
    0.451942     0.933104     0.614074
    0.702863     0.187516     0.370479
    0.365392     0.933112     0.200469
    0.873188     0.433062     0.699336
    0.702875     0.678544     0.370548
    0.619393     0.678503     0.943128
    0.371304     0.433140     0.197527
    0.956744     0.933112     0.113270
    0.119070     0.182747     0.448136
    0.203223     0.182743     0.865615
    0.119079     0.683521     0.448157
    0.203218     0.683526     0.865593
    0.870382     0.933103     0.699653
    0.449111     0.433061     0.614353
    0.660936     0.932757     0.156740
EA4996  3.092  3.700  3.726 108.11 79.86 109.77 Sym.group:    2
1.0
    3.091514     0.031846    -0.009814
   -1.287030     3.467679     0.099839
    0.678132    -1.085010     3.499018
   H
  20
Direct
    0.244231     0.492829     0.359100
    0.848559     0.191359     0.023678
    0.098178     0.641365     0.349342
    0.433139     0.912670     0.688782
    0.348654     0.028244     0.108659
    0.405081     0.389351     0.926286
    0.678233     0.299782     0.450643
    0.061703     0.051466     0.594164
    0.042483     0.226918     0.542371
    0.374790     0.560000     0.870622
    0.990392     0.576818     0.808815
    0.935782     0.755698     0.774053
    0.639915     0.815052     0.708194
    0.518439     0.119817     0.597472
    0.715251     0.899269     0.203008
    0.787978     0.367344     0.989709
    0.151085     0.132948     0.090561
    0.246913     0.821862     0.207171
    0.544254     0.453627     0.436840
    0.735543     0.723298     0.252689
EA4200  2.999  3.826  6.335 76.96 89.87 67.08 Sym.group:    8
1.0
    2.998347    -0.037753     0.023944
    1.533871     3.505050     0.023376
   -0.015728     1.525772     6.148868
  Ba   H
   2  15
Direct
    0.039316     0.356871     0.491260
    0.306877     0.824571     0.912302
    0.985728     0.465444     0.816748
    0.515812     0.401561     0.225707
    0.747900     0.938702     0.485819
    0.777429     0.882486     0.181937
    0.883118     0.669366     0.169440
    0.783517     0.870246     0.651434
    0.362733     0.709843     0.596169
    0.297679     0.846269     0.347047
    0.218880     0.266497     0.134437
    0.700758     0.033493     0.345691
    0.624807     0.195138     0.033498
    0.591317     0.258642     0.885039
    0.547148     0.342067     0.734976
    0.375998     0.685177     0.271754
    0.955145     0.267276     0.128325
EA4154  2.939  3.796  3.818 90.58 109.03 76.70 Sym.group:    2
1.0
    2.936090     0.044003    -0.134240
    0.812790     3.706226    -0.128363
   -1.084454     0.324641     3.646270
  Ba   H
   1  12
Direct
    0.704421     0.570249     0.434382
    0.452902     0.281571     0.872481
    0.052539     0.016599     0.540578
    0.435148     0.156675     0.678480
    0.046468     0.473118     0.007996
    0.362336     0.673231     0.860431
    0.917778     0.041579     0.714020
    0.492881     0.099018     0.159282
    0.959438     0.864042     0.997752
    0.493206     0.838910     0.890490
    0.927799     0.300639     0.978857
    0.357105     0.124393     0.330358
    0.970884     0.986312     0.195581
EA7884  4.419  3.966  4.674 98.60 69.45 104.98 Sym.group:    1
1.0
    4.411912    -0.046579    -0.247084
   -1.008217     3.816468    -0.382852
    1.884456     0.200217     4.272654
  Ba   H
   2  21
Direct
    0.070177     0.337153     0.129565
    0.741981     0.981812     0.709343
    0.290000     0.180246     0.574729
    0.576642     0.325677     0.112405
    0.481580     0.747674     0.187564
    0.639415     0.540210     0.394097
    0.568866     0.001103     0.351302
    0.166781     0.762739     0.457180
    0.824494     0.775066     0.225702
    0.326857     0.587028     0.710412
    0.552514     0.605226     0.065913
    0.172967     0.883563     0.308059
    0.274373     0.886475     0.067635
    0.999193     0.546606     0.627751
    0.634669     0.424738     0.549334
    0.249623     0.289780     0.464793
    0.209057     0.868459     0.891074
    0.373675     0.646596     0.541866
    0.535746     0.147116     0.233732
    0.906403     0.541263     0.811582
    0.234141     0.979441     0.711006
    0.892863     0.767050     0.040858
    0.528563     0.427137     0.771960
EA337   7.686  2.933  4.127 69.38 95.71 90.41 Sym.group:   12
1.0
    7.685871     0.024608    -0.044503
   -0.030263     2.932480     0.025843
   -0.392576     1.415294     3.856458
  Ba   H
   4   9
Direct
    0.126820     0.991563     0.626630
    0.615552     0.486436     0.638168
    0.372380     0.236878     0.134838
    0.861133     0.731780     0.146344
    0.831394     0.025717     0.562102
    0.410513     0.944500     0.718244
    0.993894     0.361763     0.886313
    0.084127     0.275544     0.064348
    0.903733     0.447860     0.708480
    0.577440     0.778798     0.054799
    0.328620     0.529307     0.553640
    0.156547     0.697624     0.210867
    0.659340     0.193997     0.219408
EA3505  4.144  4.060  3.128 89.99 90.00 90.02 Sym.group:   83
1.0
    4.144332    -0.011976    -0.030371
    0.009752     4.058862    -0.086397
    0.023282     0.066974     3.127231
  Ba   H
   1  18
Direct
    0.497582     0.501220     0.942609
    0.137123     0.433041     0.442645
    0.857979     0.569424     0.442558
    0.577256     0.129396     0.442763
    0.417845     0.873055     0.442440
    0.283423     0.009188     0.066618
    0.711420     0.993235     0.067220
    0.989660     0.285960     0.066636
    0.005417     0.716354     0.066842
    0.997718     0.001296     0.315664
    0.989685     0.286101     0.818337
    0.005449     0.716502     0.818550
    0.711700     0.993273     0.818561
    0.283690     0.009232     0.817972
    0.752813     0.757348     0.442547
    0.242308     0.245097     0.442661
    0.233325     0.748098     0.442515
    0.761764     0.254362     0.442693
    0.997399     0.001163     0.569495
EA1736  3.941  5.228  3.918 89.63 90.95 101.90 Sym.group:    2
1.0
    3.920798    -0.385559    -0.081428
   -0.571222     5.196373     0.045410
    0.015529    -0.007044     3.918137
  Ba   H
   2  21
Direct
    0.349088     0.942700     0.898041
    0.955259     0.410457     0.065409
    0.763133     0.702623     0.716302
    0.709495     0.363029     0.566185
    0.218861     0.601333     0.567460
    0.447494     0.380377     0.827995
    0.469778     0.447004     0.289815
    0.494745     0.536723     0.863757
    0.884115     0.068331     0.707557
    0.529911     0.801401     0.399825
    0.200339     0.435179     0.566519
    0.773411     0.545609     0.565116
    0.595859     0.989584     0.398009
    0.419329     0.284191     0.258090
    0.103942     0.917491     0.397352
    0.082211     0.750694     0.395992
    0.647386     0.172307     0.474790
    0.857050     0.972265     0.134668
    0.833690     0.905062     0.673175
    0.130868     0.242882     0.581607
    0.810492     0.816340     0.099976
    0.168393     0.109299     0.381472
    0.541759     0.650144     0.253362
EA7299  6.582  3.381  3.600 104.99 95.39 76.65 Sym.group:    1
1.0
    6.580720     0.103084     0.024525
    0.729223     3.301506     0.040477
   -0.336961    -0.922006     3.463737
  Ba   H
   2  20
Direct
    0.305876     0.762876     0.200168
    0.769141     0.093169     0.766319
    0.432852     0.048821     0.832660
    0.535364     0.150492     0.234505
    0.621534     0.611127     0.453472
    0.487778     0.547959     0.674817
    0.604386     0.353009     0.297677
    0.426650     0.358523     0.597930
    0.105719     0.791599     0.673882
    0.976506     0.084641     0.305859
    0.115832     0.031134     0.733066
    0.966006     0.846633     0.237843
    0.000272     0.529144     0.887182
    0.826177     0.655300     0.200589
    0.113394     0.398484     0.343424
    0.878570     0.464096     0.384761
    0.673248     0.741500     0.116029
    0.302049     0.164764     0.780418
    0.573694     0.757601     0.930870
    0.201585     0.384855     0.602707
    0.081171     0.333559     0.091565
    0.963544     0.476070     0.639125
EA8748  2.970  5.946  6.468 85.69 76.73 89.86 Sym.group:    2
1.0
    2.954494    -0.297247     0.026565
    0.607408     5.912149     0.171600
    1.451083     0.157099     6.301068
  Ba   H
   5  11
Direct
    0.545220     0.199715     0.414046
    0.934590     0.787938     0.616615
    0.136208     0.595676     0.221703
    0.337734     0.403426     0.826768
    0.727146     0.991669     0.029313
    0.301972     0.765169     0.887281
    0.169045     0.229980     0.152380
    0.382423     0.020115     0.758836
    0.103324     0.961389     0.291008
    0.569426     0.831144     0.355385
    0.889844     0.171287     0.684515
    0.769645     0.631443     0.954808
    0.702961     0.360224     0.087999
    0.970405     0.426183     0.556099
    0.502741     0.559912     0.488566
    0.136137     0.095712     0.721682