File: xrpostproc/single_plot/XRD_30gpa_NaCl.txt
2.7034	0.1825
2.7208	3.2522e-3
2.7383	1.4493
2.7558	2.7515
2.7732	3.3013
2.7907	3.7417
2.8082	4.5417
2.8257	7.3198
2.8431	6.9765
2.8606	6.6997
2.8781	7.7761
2.8955	8.3006
2.9130	7.8339
2.9305	7.1260
2.9479	6.9971
2.9654	8.1057
2.9829	8.4545
3.0003	7.9645
3.0178	7.1731
3.0353	7.3884
3.0528	8.1646
3.0702	9.5436
3.0877	9.3639
3.1052	7.6130
3.1226	8.9544
3.1401	9.5017
3.1576	10.6711
3.1750	9.8807
3.1925	9.3024
3.2100	10.4843
3.2274	10.4895
3.2449	9.2801
3.2624	9.2616
3.2799	10.4145
3.2973	10.1375
3.3148	9.6461
3.3323	9.0101
3.3497	8.0007
3.3672	7.7549
3.3847	7.5007
3.4021	5.1308
3.4196	3.7431
3.4371	4.7228
3.4545	6.3022
3.4720	6.5003
3.4895	6.7275
3.5070	6.1067
3.5244	4.7562
3.5419	5.1666
3.5594	4.4103
3.5768	4.3137
3.5943	5.1045
3.6118	5.9586
3.6292	5.7858
3.6467	5.2082
3.6642	4.1047
3.6816	3.8133
3.6991	4.0433
3.7166	4.2667
3.7341	3.9207
3.7515	3.9590
3.7690	3.1548
3.7865	1.4577
3.8039	1.0838
3.8214	0.7313
3.8389	0.1114
3.8563	0.2958
3.8738	0.7125
3.8913	0.8120
3.9087	1.4739
3.9262	1.2559
3.9437	0.7991
3.9612	1.8077
3.9786	2.9147
3.9961	3.5753
4.0136	2.7533
4.0310	2.0947
4.0485	0.8963
4.0660	-0.4954
4.0834	0.4667
4.1009	1.1157
4.1184	0.1861
4.1358	-0.1582
4.1533	0.2743
4.1708	0.1709
4.1883	0.7737
4.2057	0.8721
4.2232	-0.0333
4.2407	0.1879
4.2581	0.6287
4.2756	1.1645
4.2931	1.0965
4.3105	0.6918
4.3280	-0.8289
4.3455	0.7450
4.3629	2.1719
4.3804	2.0527
4.3979	3.6912
4.4154	5.9306
4.4328	14.3772
4.4503	30.3330
4.4678	33.2072
4.4852	16.8469
4.5027	5.5063
4.5202	2.1982
4.5376	2.1782
4.5551	2.4138
4.5726	2.8560
4.5900	5.3329
4.6075	16.0186
4.6250	39.1212
4.6425	48.7823
4.6599	31.9193
4.6774	12.0200
4.6949	4.3379
4.7123	2.9240
4.7298	2.3045
4.7473	1.5249
4.7647	1.4931
4.7822	1.2671
4.7997	1.7949
4.8171	2.1632
4.8346	1.9299
4.8521	1.4745
4.8696	2.1637
4.8870	2.5721
4.9045	1.5672
4.9220	-0.2016
4.9394	-0.6454
4.9569	0.7409
4.9744	1.2385
4.9918	1.3818
5.0093	0.7229
5.0268	-0.2375
5.0442	-0.0148
5.0617	0.9562
5.0792	1.1361
5.0967	0.5922
5.1141	1.8507
5.1316	5.6480
5.1491	9.3762
5.1665	9.0927
5.1840	5.5786
5.2015	2.8973
5.2189	2.0253
5.2364	0.7380
5.2539	-0.1452
5.2713	0.0464
5.2888	0.5333
5.3063	1.0853
5.3238	0.8324
5.3412	1.0839
5.3587	1.0163
5.3762	0.5077
5.3936	1.1688
5.4111	0.8841
5.4286	0.5729
5.4460	0.2663
5.4635	-0.1277
5.4810	1.0522
5.4984	1.1939
5.5159	1.9032
5.5334	3.2432
5.5509	4.1710
5.5683	6.7821
5.5858	17.0417
5.6033	38.4320
5.6207	55.3837
5.6382	46.3994
5.6557	25.2764
5.6731	15.6367
5.6906	17.7459
5.7081	24.5964
5.7255	23.6496
5.7430	10.7185
5.7605	3.8574
5.7780	1.8269
5.7954	0.7144
5.8129	1.3826
5.8304	1.8996
5.8478	3.1484
5.8653	2.3321
5.8828	2.0556
5.9002	2.2033
5.9177	0.3563
5.9352	-0.5341
5.9526	0.7589
5.9701	2.5517
5.9876	2.8311
6.0051	2.1068
6.0225	1.2756
6.0400	0.9044
6.0575	1.0219
6.0749	1.3123
6.0924	0.8976
6.1099	0.5367
6.1273	1.0858
6.1448	2.1500
6.1623	1.7850
6.1797	0.2103
6.1972	0.2516
6.2147	1.3697
6.2322	2.5658
6.2496	3.6815
6.2671	3.4974
6.2846	2.9528
6.3020	4.0334
6.3195	6.8289
6.3370	9.7825
6.3544	11.6462
6.3719	13.7375
6.3894	19.1056
6.4068	28.7804
6.4243	41.9562
6.4418	71.2291
6.4593	191.8077
6.4767	349.4398
6.4942	464.7399
6.5117	438.1572
6.5291	243.2919
6.5466	101.0818
6.5641	49.9537
6.5815	29.4942
6.5990	19.2052
6.6165	13.7350
6.6340	9.8347
6.6514	7.2191
6.6689	6.4709
6.6864	6.3189
6.7038	6.3290
6.7213	6.3659
6.7388	5.9829
6.7562	8.8167
6.7737	15.7318
6.7912	36.6996
6.8086	77.2477
6.8261	106.3756
6.8436	106.7087
6.8611	89.8779
6.8785	56.4713
6.8960	26.5528
6.9135	11.1233
6.9309	6.9878
6.9484	5.2247
6.9659	4.3551
6.9833	3.6443
7.0008	4.5070
7.0183	6.2923
7.0357	8.2929
7.0532	8.0692
7.0707	5.0359
7.0882	2.1035
7.1056	0.6311
7.1231	1.2800
7.1406	1.5194
7.1580	1.0466
7.1755	1.7251
7.1930	2.0367
7.2104	2.6804
7.2279	5.0006
7.2454	7.9631
7.2628	11.6572
7.2803	21.1636
7.2978	33.1590
7.3153	33.6651
7.3327	22.4983
7.3502	12.4774
7.3677	7.9450
7.3851	7.0851
7.4026	6.8506
7.4201	6.7948
7.4375	8.5878
7.4550	10.3505
7.4725	13.0594
7.4899	16.3378
7.5074	20.4556
7.5249	27.3448
7.5424	38.6028
7.5598	58.9030
7.5773	108.5408
7.5948	252.2006
7.6122	549.6905
7.6297	891.4019
7.6472	1034.46
7.6646	841.0477
7.6821	508.0962
7.6996	350.5148
7.7170	398.1750
7.7345	423.6478
7.7520	306.4624
7.7695	142.4535
7.7869	61.6467
7.8044	36.1465
7.8219	27.1399
7.8393	22.7678
7.8568	19.6723
7.8743	18.1553
7.8917	18.5331
7.9092	23.1057
7.9267	33.8092
7.9441	48.5142
7.9616	58.2081
7.9791	56.0141
7.9966	44.2534
8.0140	32.1664
8.0315	23.8464
8.0490	20.2554
8.0664	20.2177
8.0839	23.5670
8.1014	35.2099
8.1188	74.7821
8.1363	193.7945
8.1538	390.6501
8.1712	504.6089
8.1887	427.6786
8.2062	267.5057
8.2237	133.1976
8.2411	59.3915
8.2586	29.9247
8.2761	19.4202
8.2935	14.0132
8.3110	11.0448
8.3285	8.4849
8.3459	6.6740
8.3634	5.8927
8.3809	4.7975
8.3983	3.4931
8.4158	2.7629
8.4333	2.2642
8.4508	3.0271
8.4682	4.6401
8.4857	7.6073
8.5032	10.3901
8.5206	11.9667
8.5381	11.6556
8.5556	8.2695
8.5730	5.0208
8.5905	3.1874
8.6080	3.3513
8.6254	2.3099
8.6429	0.9206
8.6604	0.3130
8.6779	0.7061
8.6953	1.4520
8.7128	1.8495
8.7303	1.6814
8.7477	1.1278
8.7652	1.8405
8.7827	2.3739
8.8001	2.4623
8.8176	2.8575
8.8351	2.7938
8.8525	3.0733
8.8700	4.2114
8.8875	7.6454
8.9050	16.6642
8.9224	27.3505
8.9399	28.6344
8.9574	20.4604
8.9748	12.6160
8.9923	8.2640
9.0098	7.0210
9.0272	6.4412
9.0447	6.3326
9.0622	6.9398
9.0796	6.8786
9.0971	7.1082
9.1146	8.6437
9.1321	11.4594
9.1495	14.1186
9.1670	18.1368
9.1845	25.5151
9.2019	40.5952
9.2194	76.5760
9.2369	145.1160
9.2543	218.3372
9.2718	250.9998
9.2893	233.1902
9.3067	174.3176
9.3242	106.8379
9.3417	60.6089
9.3592	37.5926
9.3766	26.6619
9.3941	21.1088
9.4116	18.5633
9.4290	16.4777
9.4465	15.3274
9.4640	14.2390
9.4814	11.7408
9.4989	10.0159
9.5164	8.9554
9.5338	8.3331
9.5513	7.0002
9.5688	5.5790
9.5863	3.2710
9.6037	3.2020
9.6212	5.4487
9.6387	8.5294
9.6561	10.5952
9.6736	9.5363
9.6911	8.5006
9.7085	7.8236
9.7260	6.2020
9.7435	5.8391
9.7609	5.1645
9.7784	5.1637
9.7959	6.1519
9.8134	7.0523
9.8308	6.4884
9.8483	9.5136
9.8658	17.6091
9.8832	35.2561
9.9007	54.9134
9.9182	57.8464
9.9356	41.8964
9.9531	24.5468
9.9706	17.1268
9.9880	15.8829
10.0055	17.4344
10.0230	19.2420
10.0405	20.4170
10.0579	19.3812
10.0754	17.0477
10.0929	14.9427
10.1103	14.4079
10.1278	14.9573
10.1453	14.2733
10.1627	14.2145
10.1802	16.2902
10.1977	18.7825
10.2151	21.6347
10.2326	25.8505
10.2501	31.3529
10.2676	37.3226
10.2850	43.9144
10.3025	51.5795
10.3200	57.9578
10.3374	58.0848
10.3549	46.7544
10.3724	33.6225
10.3898	24.1043
10.4073	17.6660
10.4248	13.8150
10.4422	10.7242
10.4597	9.0689
10.4772	8.3172
10.4947	6.7008
10.5121	6.1552
10.5296	5.8489
10.5471	5.1647
10.5645	4.8021
10.5820	5.4581
10.5995	5.4126
10.6169	4.6311
10.6344	3.8854
10.6519	3.1810
10.6693	3.4263
10.6868	2.6430
10.7043	2.4302
10.7218	2.0372
10.7392	2.0257
10.7567	1.4242
10.7742	0.2800
10.7916	-0.3268
10.8091	0.7608
10.8266	1.7062
10.8440	1.3304
10.8615	1.1021
10.8790	1.8467
10.8964	2.0917
10.9139	3.5181
10.9314	4.2118
10.9489	5.0887
10.9663	5.2510
10.9838	5.4967
11.0013	5.7455
11.0187	5.4282
11.0362	6.1383
11.0537	8.1945
11.0711	10.9220
11.0886	16.6650
11.1061	23.9402
11.1235	26.3586
11.1410	22.5729
11.1585	20.1418
11.1760	23.4556
11.1934	32.2649
11.2109	52.7879
11.2284	83.7609
11.2458	111.4803
11.2633	118.2948
11.2808	95.3313
11.2982	60.9900
11.3157	34.9967
11.3332	21.0660
11.3506	14.0714
11.3681	11.7003
11.3856	10.3581
11.4031	9.0801
11.4205	8.4771
11.4380	8.1245
11.4555	10.1985
11.4729	13.4070
11.4904	19.4243
11.5079	30.6631
11.5253	48.1119
11.5428	65.2601
11.5603	68.4895
11.5777	57.0330
11.5952	45.8484
11.6127	36.7690
11.6302	28.9146
11.6476	24.6491
11.6651	24.5215
11.6826	28.0955
11.7000	32.6252
11.7175	45.0663
11.7350	71.9627
11.7524	86.1870
11.7699	67.7824
11.7874	42.9671
11.8049	28.7703
11.8223	22.3034
11.8398	17.0423
11.8573	11.3757
11.8747	7.4443
11.8922	5.4455
11.9097	5.0655
11.9271	3.6012
11.9446	3.5657
11.9621	3.1100
11.9795	2.8872
11.9970	3.2999
12.0145	3.6699
12.0320	3.8664
12.0494	4.5240
12.0669	6.1996
12.0844	8.2505
12.1018	11.1560
12.1193	15.0354
12.1368	20.6931
12.1542	28.2817
12.1717	38.4818
12.1892	55.6173
12.2066	82.9696
12.2241	110.3957
12.2416	119.6662
12.2591	105.7729
12.2765	84.3591
12.2940	77.3670
12.3115	93.8155
12.3289	118.6958
12.3464	125.9435
12.3639	119.5172
12.3813	107.5238
12.3988	87.3904
12.4163	62.8239
12.4337	40.9552
12.4512	26.6695
12.4687	18.1541
12.4862	13.1856
12.5036	10.4540
12.5211	8.5247
12.5386	7.7633
12.5560	6.7312
12.5735	6.1739
12.5910	5.5778
12.6084	5.4850
12.6259	5.9341
12.6434	6.1180
12.6608	7.4637
12.6783	8.7307
12.6958	8.4891
12.7133	8.9938
12.7307	10.4694
12.7482	11.2203
12.7657	12.0274
12.7831	12.9402
12.8006	13.4137
12.8181	14.2475
12.8355	17.4870
12.8530	20.0057
12.8705	21.1425
12.8879	20.2484
12.9054	19.3475
12.9229	18.4321
12.9404	18.6800
12.9578	19.5258
12.9753	21.6341
12.9928	24.9435
13.0102	28.4125
13.0277	29.7660
13.0452	28.6140
13.0626	26.6311
13.0801	28.6496
13.0976	37.8340
13.1150	48.7939
13.1325	51.8717
13.1500	43.3297
13.1675	31.4418
13.1849	23.1620
13.2024	17.6949
13.2199	14.3588
13.2373	12.2056
13.2548	11.5065
13.2723	11.6904
13.2897	12.7445
13.3072	13.5903
13.3247	15.0410
13.3421	16.8864
13.3596	21.0815
13.3771	31.2441
13.3946	47.3092
13.4120	54.6033
13.4295	47.2275
13.4470	37.0311
13.4644	27.8069
13.4819	21.1835
13.4994	17.6987
13.5168	17.2568
13.5343	16.2217
13.5518	16.1392
13.5692	17.4500
13.5867	18.8385
13.6042	22.2074
13.6217	30.4618
13.6391	49.6822
13.6566	80.6683
13.6741	100.8219
13.6915	98.4815
13.7090	83.5613
13.7265	67.4008
13.7439	55.2499
13.7614	48.5770
13.7789	45.7411
13.7963	43.0807
13.8138	41.4720
13.8313	41.4879
13.8488	43.0648
13.8662	42.8604
13.8837	41.4613
13.9012	41.3329
13.9186	42.0920
13.9361	40.1597
13.9536	38.7239
13.9710	40.8672
13.9885	47.1774
14.0060	57.0223
14.0234	65.4193
14.0409	68.0489
14.0584	65.2180
14.0759	62.2784
14.0933	56.0393
14.1108	43.1862
14.1283	29.4080
14.1457	21.0327
14.1632	16.1092
14.1807	12.0462
14.1981	9.4528
14.2156	8.2298
14.2331	7.4561
14.2505	6.4104
14.2680	4.9101
14.2855	5.1588
14.3030	4.2713
14.3204	4.1593
14.3379	5.8647
14.3554	7.1398
14.3728	7.0130
14.3903	6.3482
14.4078	5.5341
14.4252	4.2233
14.4427	2.8546
14.4602	2.1548
14.4776	0.5532
14.4951	0.3637
14.5126	0.5464
14.5301	0.0728
14.5475	0.0762
14.5650	1.2726
14.5825	2.9877
14.5999	3.0433
14.6174	3.0577
14.6349	2.4619
14.6523	1.0100
14.6698	0.3367
14.6873	0.3974
14.7047	1.6023
14.7222	3.1928
14.7397	4.9822
14.7572	8.7991
14.7746	12.9777
14.7921	14.1738
14.8096	11.7423
14.8270	7.2588
14.8445	4.4788
14.8620	2.0494
14.8794	-0.0709
14.8969	-0.0644
14.9144	0.2223
14.9318	0.1690
14.9493	0.5528
14.9668	-0.1167
14.9843	-0.1171
15.0017	0.2531
15.0192	1.4364
15.0367	2.7249
15.0541	5.3487
15.0716	7.5058
15.0891	7.7970
15.1065	7.3112
15.1240	8.2008
15.1415	10.5295
15.1589	13.6202
15.1764	18.8944
15.1939	27.5813
15.2114	39.3108
15.2288	48.5598
15.2463	49.8279
15.2638	44.4997
15.2812	37.6465
15.2987	32.8634
15.3162	29.9340
15.3336	26.7854
15.3511	22.2965
15.3686	19.0951
15.3860	17.8841
15.4035	16.0013
15.4210	11.8685
15.4385	8.4925
15.4559	7.7292
15.4734	8.1688
15.4909	8.2598
15.5083	7.7959
15.5258	7.8712
15.5433	9.9691
15.5607	12.8351
15.5782	16.0127
15.5957	18.3478
15.6131	20.4787
15.6306	20.8774
15.6481	21.0879
15.6656	20.1332
15.6830	19.4045
15.7005	20.9155
15.7180	25.6121
15.7354	31.2317
15.7529	32.3668
15.7704	29.0113
15.7878	22.6777
15.8053	18.1904
15.8228	13.1515
15.8402	8.3268
15.8577	4.8404
15.8752	2.6521
15.8927	2.4561
15.9101	2.7374
15.9276	3.4670
15.9451	3.1033
15.9625	2.7411
15.9800	2.2790
15.9975	1.9007
16.0149	1.1271
16.0324	0.5224
16.0499	0.8860
16.0673	1.7330
16.0848	1.9734
16.1023	2.4856
16.1198	3.7293
16.1372	4.9166
16.1547	4.4161
16.1722	2.5621
16.1896	1.1892
16.2071	1.2147
16.2246	2.1103
16.2420	2.3485
16.2595	1.9479
16.2770	1.6906
16.2944	1.9366
16.3119	2.2663
16.3294	2.2495
16.3469	2.0122
16.3643	1.9865
16.3818	1.7678
16.3993	1.6879
16.4167	1.3904
16.4342	1.2953
16.4517	1.4273
16.4691	2.4965
16.4866	2.8669
16.5041	2.3443
16.5215	1.9721
16.5390	1.5183
16.5565	1.0303
16.5740	0.8306
16.5914	1.3918
16.6089	1.9078
16.6264	1.6092
16.6438	0.7115
16.6613	0.5456
16.6788	0.8406
16.6962	1.0686
16.7137	-0.1073
16.7312	-0.1130
16.7486	1.3881
16.7661	2.0957
16.7836	2.1925
16.8011	3.1181
16.8185	5.3060
16.8360	7.7127
16.8535	10.1464
16.8709	10.8063
16.8884	9.4842
16.9059	8.7151
16.9233	8.6369
16.9408	9.6829
16.9583	10.7377
16.9758	10.3754
16.9932	8.5871
17.0107	7.2291
17.0282	6.3765
17.0456	5.3636
17.0631	5.1591
17.0806	6.0809
17.0980	7.1418
17.1155	7.9705
17.1330	8.5180
17.1504	8.9500
17.1679	8.5953
17.1854	7.9191
17.2029	6.6756
17.2203	5.2939
17.2378	3.6198
17.2553	2.2359
17.2727	0.9596
17.2902	0.4405
17.3077	0.2478
17.3251	-6.5129e-3
17.3426	-0.0365
17.3601	0.2818
17.3775	0.5703
17.3950	0.2375
17.4125	-1.5221e-3
17.4300	-7.3196e-3
17.4474	-0.1883
17.4649	-0.5124
17.4824	0.4039
17.4998	1.2556
17.5173	3.3490
17.5348	5.3109
17.5522	5.2588
17.5697	3.7374
17.5872	2.7800
17.6046	1.7448
17.6221	0.8701
17.6396	0.9757
17.6571	1.5317
17.6745	2.1154
17.6920	2.8483
17.7095	3.3856
17.7269	2.9460
17.7444	1.9193
17.7619	0.9358
17.7793	0.2971
17.7968	0.1625
17.8143	-0.4420
17.8317	0.0822
17.8492	1.1026
17.8667	4.0168
17.8842	8.1453
17.9016	9.8666
17.9191	6.9106
17.9366	3.7455
17.9540	1.5638
17.9715	0.3135
17.9890	-0.1257
18.0064	-0.4266
18.0239	-0.2401
18.0414	0.3867
18.0588	1.0595
18.0763	1.6955
18.0938	2.9949
18.1113	3.5012
18.1287	2.2171
18.1462	-0.1657
18.1637	-0.2279
18.1811	-0.2376
18.1986	-0.6736
18.2161	-1.0113
18.2335	0.2610
18.2510	1.0871
18.2685	0.2171
18.2859	-0.3192
18.3034	-0.3436
18.3209	0.3645