File: xrpostproc/pareto_picture/XRD_135gpa_pure_BaH12.txt
4.94906	0.804769
4.97127	1.14152
4.99349	1.73449
5.01571	1.69752
5.03793	1.17772
5.06015	1.5836
5.08236	0.973896
5.10458	0.615069
5.1268	2.26488
5.14902	3.16526
5.17124	3.81128
5.19345	4.15499
5.21567	4.01877
5.23789	3.40993
5.26011	3.49887
5.28232	3.45148
5.30454	4.37921
5.32676	4.36771
5.34898	4.03378
5.3712	5.18464
5.39341	6.84464
5.41563	8.07486
5.43785	9.31985
5.46007	8.84649
5.48229	7.87105
5.5045	6.9987
5.52672	6.93544
5.54894	6.52522
5.57116	5.47262
5.59338	5.75809
5.61559	6.75929
5.63781	6.93716
5.66003	7.49191
5.68225	8.80629
5.70447	8.59914
5.72668	7.03272
5.7489	7.35514
5.77112	6.14102
5.79334	4.75818
5.81556	4.84602
5.83777	5.11361
5.85999	4.8628
5.88221	4.01195
5.90443	3.70183
5.92665	5.63915
5.94886	6.00132
5.97108	6.2999
5.9933	5.71392
6.01552	5.11698
6.03774	5.38693
6.05995	5.45231
6.08217	4.81959
6.10439	4.82659
6.12661	4.7571
6.14883	6.11603
6.17104	7.19234
6.19326	7.22858
6.21548	5.37882
6.2377	3.75225
6.25992	4.29677
6.28213	3.87856
6.30435	4.17786
6.32657	3.78704
6.34879	5.08061
6.37101	6.56443
6.39322	7.19513
6.41544	8.41936
6.43766	9.44317
6.45988	9.34561
6.4821	7.59527
6.50431	8.13069
6.52653	7.00161
6.54875	5.75595
6.57097	5.70515
6.59319	4.0065
6.6154	3.32344
6.63762	4.21199
6.65984	6.17494
6.68206	7.7255
6.70428	6.06448
6.72649	5.58603
6.74871	5.2247
6.77093	4.2375
6.79315	4.43629
6.81537	4.84653
6.83758	5.19869
6.8598	2.99013
6.88202	1.8624
6.90424	1.70409
6.92646	2.89478
6.94867	4.80964
6.97089	3.91737
6.99311	2.83246
7.01533	3.64674
7.03755	4.08544
7.05976	2.6746
7.08198	2.68148
7.1042	4.49466
7.12642	4.47561
7.14864	3.20983
7.17085	3.57184
7.19307	4.63057
7.21529	4.6608
7.23751	4.99124
7.25973	4.07129
7.28194	1.83558
7.30416	1.61069
7.32638	1.73286
7.3486	0.39106
7.37082	1.05507
7.39303	0.963491
7.41525	-0.00321066
7.43747	-0.549897
7.45969	1.6531
7.48191	4.51315
7.50412	4.49825
7.52634	2.75807
7.54856	2.76529
7.57078	3.29643
7.593	2.37162
7.61521	2.28126
7.63743	2.37107
7.65965	1.90202
7.68187	1.85461
7.70408	2.20423
7.7263	1.82343
7.74852	2.4494
7.77074	3.865
7.79296	3.35094
7.81517	2.27683
7.83739	1.70883
7.85961	0.708626
7.88183	1.04194
7.90405	2.87236
7.92626	1.39235
7.94848	1.55297
7.9707	1.41326
7.99292	0.124276
8.01514	-0.114141
8.03735	1.05798
8.05957	0.949801
8.08179	1.44081
8.10401	1.6535
8.12623	2.14523
8.14844	0.904474
8.17066	0.142661
8.19288	0.339301
8.2151	-0.0646342
8.23732	-0.370684
8.25953	-0.562223
8.28175	0.315659
8.30397	0.499187
8.32619	-0.120074
8.34841	0.929959
8.37062	0.621448
8.39284	0.716191
8.41506	1.33301
8.43728	1.27903
8.4595	-0.224306
8.48171	0.135447
8.50393	1.18451
8.52615	2.00532
8.54837	2.88411
8.57059	3.29705
8.5928	4.74467
8.61502	6.71842
8.63724	7.59069
8.65946	8.77604
8.68168	2.88411
8.70389	3.29705
8.72611	4.74467
8.74833	3.26292
8.77055	2.88411
8.79277	3.29705
8.81498	3.26292
8.8372	4.23368
8.85942	2.88411
8.88164	3.29705
8.90386	3.26292
8.92607	2.88411
8.94829	7.71868
8.97051	6.76464
8.99273	5.86656
9.01495	4.09974
9.03716	3.55667
9.05938	6.41747
9.0816	11.3839
9.10382	17.4411
9.12604	25.778
9.14825	30.5202
9.17047	27.2412
9.19269	18.7256
9.21491	12.5306
9.23713	8.41429
9.25934	6.47165
9.28156	5.44453
9.30378	2.87376
9.326	1.61353
9.34822	1.68962
9.37043	1.2531
9.39265	3.02985
9.41487	3.57337
9.43709	3.14606
9.45931	2.52092
9.48152	2.15048
9.50374	1.63222
9.52596	1.43919
9.54818	1.06354
9.5704	0.227816
9.59261	-0.935623
9.61483	-0.512247
9.63705	-0.256174
9.65927	-0.913654
9.68149	-0.371875
9.7037	1.25815
9.72592	3.58493
9.74814	4.97604
9.77036	3.24719
9.79258	3.02612
9.81479	4.7981
9.83701	5.17265
9.85923	5.31673
9.88145	6.11855
9.90367	8.08626
9.92588	3.24719
9.9481	3.02612
9.97032	4.7981
9.99254	5.17265
10.0148	5.31673
10.037	3.24719
10.0592	3.02612
10.0814	4.7981
10.1036	5.17265
10.1258	5.31673
10.1481	3.24719
10.1703	3.02612
10.1925	4.7981
10.2147	5.17265
10.2369	5.31673
10.2592	5.8736
10.2814	2.88736
10.3036	3.85383
10.3258	4.29519
10.348	2.98947
10.3702	2.52746
10.3925	2.01624
10.4147	0.5268
10.4369	0.343937
10.4591	1.29465
10.4813	1.9421
10.5036	1.52976
10.5258	0.252884
10.548	1.83701
10.5702	3.33206
10.5924	2.86553
10.6146	1.73268
10.6369	1.61949
10.6591	2.11069
10.6813	2.10521
10.7035	2.02929
10.7257	1.57318
10.7479	1.31226
10.7702	-0.00378028
10.7924	-0.925931
10.8146	0.83038
10.8368	2.67019
10.859	5.02428
10.8813	6.73123
10.9035	7.785
10.9257	9.10306
10.9479	11.9489
10.9701	13.8096
10.9923	18.333
11.0146	24.1744
11.0368	35.2144
11.059	54.3331
11.0812	86.4695
11.1034	138.544
11.1257	259.225
11.1479	508.035
11.1701	739.589
11.1923	803.179
11.2145	634.775
11.2367	412.524
11.259	265.452
11.2812	120.417
11.3034	75.0682
11.3256	54.4131
11.3478	40.4094
11.3701	29.3541
11.3923	23.1482
11.4145	17.8413
11.4367	13.2053
11.4589	10.7461
11.4811	9.10072
11.5034	8.30235
11.5256	8.08177
11.5478	6.83815
11.57	6.36484
11.5922	8.81195
11.6144	10.7127
11.6367	6.5768
11.6589	3.11579
11.6811	2.94825
11.7033	3.55238
11.7255	2.84563
11.7478	2.03038
11.77	1.2797
11.7922	6.5768
11.8144	3.11579
11.8366	2.94825
11.8588	3.55238
11.8811	2.84563
11.9033	2.03038
11.9255	9.10575
11.9477	4.67031
11.9699	3.45302
11.9922	3.42338
12.0144	3.48321
12.0366	2.23183
12.0588	1.14606
12.081	3.48321
12.1032	2.23183
12.1255	1.14606
12.1477	0.0172618
12.1699	-0.530509
12.1921	0.59445
12.2143	1.42111
12.2366	2.05704
12.2588	2.177
12.281	1.78613
12.3032	3.72325
12.3254	6.66832
12.3476	11.709
12.3699	19.029
12.3921	1.98733
12.4143	2.4562
12.4365	1.47605
12.4587	2.39412
12.481	4.62181
12.5032	8.19617
12.5254	1.98733
12.5476	2.4562
12.5698	1.47605
12.592	2.39412
12.6143	4.62181
12.6365	8.19617
12.6587	17.2977
12.6809	17.7449
12.7031	19.7174
12.7253	23.1019
12.7476	27.8086
12.7698	37.7734
12.792	57.8361
12.8142	89.7566
12.8364	125.551
12.8587	151.471
12.8809	219.387
12.9031	292.2
12.9253	401.729
12.9475	487.142
12.9697	476.837
12.992	363.122
13.0142	218.745
13.0364	112.363
13.0586	40.4696
13.0808	24.762
13.1031	15.6475
13.1253	9.88279
13.1475	6.80261
13.1697	5.84706
13.1919	6.21085
13.2141	4.75026
13.2364	3.08496
13.2586	3.21836
13.2808	4.8279
13.303	5.86894
13.3252	6.9644
13.3475	7.375597
13.3697	7.6414
13.3919	9.04982
13.4141	8.70888
13.4363	7.48554
13.4585	5.94923
13.48076	4.75963
13.503	3.40793
13.5252	2.16048
13.5474	2.2445
13.5696	1.77488
13.5918	0.576653
13.6141	0.619292
13.6363	0.592769
13.6585	0.974699
13.6807	2.02681
13.7029	0.597312
13.7252	-0.742628
13.7474	0.253393
13.7696	1.55462
13.7918	1.46082
13.814	0.319649
13.8362	0.290752
13.8585	0.388557
13.8807	1.51782
13.9029	2.33152
13.9251	2.64653
13.9473	3.36007
13.9696	4.30424
13.9918	5.6459
14.014	6.25274
14.0362	5.50066
14.0584	6.86473
14.0806	7.49456
14.1029	6.17443
14.1251	6.08253
14.1473	6.40989
14.1695	6.01499
14.1917	4.78337
14.214	2.87268
14.2362	2.91829
14.2584	4.32153
14.2806	4.01851
14.3028	3.3515
14.325	4.35611
14.3473	10.3036
14.3695	18.9634
14.3917	22.4614
14.4139	20.246
14.4361	19.135
14.4584	16.4992
14.4806	10.4706
14.5028	7.32158
14.525	4.67254
14.5472	2.10426
14.5694	0.811017
14.5917	0.139077
14.6139	-0.00172952
14.6361	0.393636
14.6583	1.4408
14.6805	2.87235
14.7027	2.99057
14.725	2.84361
14.7472	3.11843
14.7694	3.51156
14.7916	3.55316
14.8138	2.45249
14.8361	1.72199
14.8583	2.47602
14.8805	4.15507
14.9027	3.6982
14.9249	3.09088
14.9471	2.3034
14.9694	2.45585
14.9916	2.27763
15.0138	2.93992
15.036	3.1794
15.0582	3.0466
15.0805	3.83051
15.1027	4.18533
15.1249	3.73944
15.1471	2.87169
15.1693	3.65125
15.1915	4.51608
15.2138	4.41643
15.236	6.4682
15.2582	5.92341
15.2804	6.3388
15.3026	7.25101
15.3249	7.60395
15.3471	7.6379
15.3693	7.77401
15.3915	7.81032
15.4137	8.461
15.4359	9.70078
15.4582	11.2598
15.4804	11.3555
15.5026	11.2768
15.5248	11.6047
15.547	11.2302
15.5693	11.1977
15.5915	11.6603
15.6137	11.8201
15.6359	11.0679
15.6581	11.7267
15.6803	13.1389
15.7026	13.9726
15.7248	14.3649
15.747	15.3566
15.7692	16.4826
15.7914	16.6425
15.8136	17.7379
15.8359	18.8881
15.8581	19.3448
15.8803	19.8186
15.9025	21.6944
15.9247	24.9625
15.947	26.685
15.9692	28.8041
15.9914	29.9207
16.0136	31.5058
16.0358	30.9706
16.058	27.5074
16.0803	24.8347
16.1025	23.2388
16.1247	19.599
16.1469	16.6111
16.1691	15.2625
16.1914	13.0785
16.2136	11.1994
16.2358	11.7726
16.258	12.5164
16.2802	12.0045
16.3024	11.3706
16.3247	11.8918
16.3469	11.8361
16.3691	11.763
16.3913	11.9523
16.4135	11.0896
16.4358	10.1159
16.458	10.6418
16.4802	10.6898
16.5024	10.2339
16.5246	9.67228
16.5468	9.05313
16.5691	9.45394
16.5913	10.0892
16.6135	10.4839
16.6357	10.7272
16.6579	10.1479
16.6801	10.3835
16.7024	10.507
16.7246	10.9293
16.7468	11.6479
16.769	11.6892
16.7912	11.872
16.8135	12.3874
16.8357	12.4324
16.8579	12.0397
16.8801	12.9902
16.9023	13.8456
16.9245	13.2461
16.9468	13.2086
16.969	11.9671
16.9912	10.7313
17.0134	11.0878
17.0356	12.3931
17.0579	12.0122
17.0801	11.8808
17.1023	12.4655
17.1245	12.4185
17.1467	12.2075
17.1689	12.2229
17.1912	12.5407
17.2134	13.294
17.2356	11.3592
17.2578	11.1101
17.28	13.7048
17.3023	15.1182
17.3245	13.7389
17.3467	13.5254
17.3689	12.7704
17.3911	11.0728
17.4133	10.3794
17.4356	11.4843
17.4578	11.9272
17.48	11.39
17.5022	11.6195
17.5244	12.0065
17.5467	11.8808
17.5689	12.4655
17.5911	12.4185
17.6133	13.2461
17.6355	13.2086
17.6577	11.9671
17.68	10.7313
17.7022	11.0878
17.7244	12.3931
17.7466	12.0122
17.7688	11.8808
17.791	12.4655
17.8133	12.4185
17.8355	14.2925
17.8577	12.6272
17.8799	11.2829
17.9021	10.4839
17.9244	9.87824
17.9466	9.64975
17.9688	9.27953
17.991	8.74992
18.0132	7.80533
18.0354	7.75326
18.0577	9.0141
18.0799	9.6797
18.1021	11.3862
18.1243	13.158
18.1465	16.5725
18.1688	23.8015
18.191	38.3362
18.2132	60.4221
18.2354	89.0476
18.2576	134.822
18.2798	152.025
18.3021	125.399
18.3243	95.3142
18.3465	71.9362
18.3687	54.1288
18.3909	38.7931
18.4132	28.2193
18.4354	20.9
18.4576	17.2356
18.4798	15.2567
18.502	12.9924
18.5242	10.3051
18.5465	8.7985
18.5687	7.54453
18.5909	6.92363
18.6131	6.70212
18.6353	7.05113
18.6575	6.7156
18.6798	6.31416
18.702	6.60677
18.7242	7.30783
18.7464	7.98021
18.7686	7.48541
18.7909	5.91987
18.8131	5.99779
18.8353	6.55144
18.8575	5.23028
18.8797	2.98672
18.9019	2.51375
18.9242	2.63404
18.9464	2.3321
18.9686	2.05577
18.9908	1.9461
19.013	1.25735
19.0353	1.31854
19.0575	2.63371
19.0797	2.45146
19.1019	0.619248
19.1241	0.923358
19.1463	0.789261
19.1686	0.788234
19.1908	0.331855
19.213	-0.302927
19.2352	0.366335
19.2574	0.416431
19.2797	0.326637
19.3019	1.31812
19.3241	2.06843
19.3463	2.17082
19.3685	3.43509
19.3907	6.32261
19.413	8.6703
19.4352	8.86591
19.4574	9.02282
19.4796	9.20086
19.5018	8.50426
19.5241	7.37557
19.5463	6.27345
19.5685	5.04846
19.5907	4.32533
19.6129	5.12077
19.6351	4.88983
19.6574	4.15383
19.6796	3.63336
19.7018	3.27974
19.724	2.43937
19.7462	2.21953
19.7684	2.69507
19.7907	1.75832
19.8129	0.304708
19.8351	0.402948
19.8573	1.29704
19.8795	1.73694
19.9018	1.04419
19.924	0.482756
19.9462	0.710602
19.9684	0.155888
19.9906	1.14285
20.0128	1.87422
20.0351	1.88205
20.0573	2.55222
20.0795	2.86839
20.1017	2.59237
20.1239	1.67664
20.1462	2.26034
20.1684	2.96493
20.1906	2.96536
20.2128	2.64613
20.235	1.7414
20.2572	0.883811
20.2795	0.691787
20.3017	0.66097
20.3239	0.371715
20.3461	1.91009
20.3683	5.30649
20.3906	9.02843
20.4128	10.9169
20.435	7.23033
20.4572	3.68654
20.4794	2.97502
20.5016	2.6581
20.5239	2.99541
20.5461	3.52822
20.5683	2.99131
20.5905	2.18382
20.6127	1.31989
20.6349	0.820504
20.6572	0.0748975
20.6794	-0.482443
20.7016	0.132718
20.7238	0.115983
20.746	0.323397
20.7683	0.307153
20.7905	0.0786685
20.8127	-0.871798
20.8349	-1.03531
20.8571	-0.0478837
20.8793	0.481051
20.9016	1.90185
20.9238	2.57513
20.946	3.09454
20.9682	3.0419
20.9904	3.43105
21.0127	2.61097
21.0349	2.4745
21.0571	1.68737
21.0793	-0.351979
21.1015	-0.455759
21.1237	0.509493
21.146	1.97445
21.1682	2.67281
21.1904	4.3084
21.2126	7.58905
21.2348	11.208
21.2571	13.9938
21.2793	18.3715
21.3015	30.4865
21.3237	74.833
21.3459	123.985
21.3681	162.114
21.3904	171.483
21.4126	184.1
21.4348	194.333
21.457	209.812
21.4792	223.807
21.5015	207.516
21.5237	166.571
21.5459	140.147
21.5681	83.2658
21.5903	67.1074
21.6125	50.201
21.6348	28.7175
21.657	15.5933
21.6792	3.75805
21.7014	-5.47421
21.7236	-7.0836
21.7458	-2.65263
21.7681	2.53163
21.7903	4.21709
21.8125	1.54979
21.8347	-4.11606
21.8569	3.51152