File: xrpostproc/generate_xrd/reference/3_-0.0008_0072594_Sr_50gpa_11.txt
11.33      0.00
11.45      0.05
11.81      0.17
11.81      0.17
12.38      0.17
12.38      0.08
13.14     23.24
13.14     25.82
13.30     20.17
13.68      0.07
13.78      0.63
14.06      0.18
14.06      0.36
14.08      1.69
14.08      1.74
14.56      1.32
14.56      0.69
15.11      0.37
15.11      0.37
15.22     93.20
15.22     89.77
15.30     64.40
15.35    100.00
16.02      0.33
16.02      0.70
16.26      0.10
16.26      0.02
16.95      0.66
16.95      0.59
17.50      0.01
17.50      0.01
17.99      0.14
17.99      0.03
18.81      0.03
18.81      0.10
19.08      0.00
19.12      0.02
19.12      0.00
19.15      0.03
19.37      0.18
19.73      0.10
19.73      0.04
20.18      0.36
20.18      0.35
20.22     14.38
20.22     15.97
20.32     12.68
20.33      0.01
20.84      0.12
20.84      0.24
21.57      0.28
21.57      0.27
21.59      0.25
21.59      0.13
21.60      0.01
21.60      0.01
22.40      0.08
22.40      0.01
22.78     17.57
22.84      1.22
22.93      0.00
22.93      0.00
23.02      0.83
23.02      0.77
23.05     19.39
23.05     19.35
23.33      0.01
23.33      0.01
23.33      0.30
23.33      0.01
23.75      0.09
23.75      0.07
24.05      0.03
24.11      0.06
24.28      0.15
24.29      0.06
24.29      0.05
24.31      0.06
24.31      0.19
24.34      0.03
24.34      0.10
24.53      0.08
24.53      0.17
24.58      0.05
24.58      0.00
24.91      0.25
24.91      0.27
24.98      0.03
24.98      0.06
25.42      0.37
25.42      0.35
25.48      0.02
25.48      0.24
25.64      0.25
25.64      0.07
25.73      0.01
25.73      0.02
25.74      0.01
25.79      0.11
25.96      0.61
26.05      0.17
26.05      0.14
26.09      0.69
26.09      0.71
26.23      0.38
26.46      2.76
26.46      2.13
26.57      0.27
26.57      0.15
26.61     18.87
26.61     18.17
26.69     20.54
26.78      4.17
26.79      0.81
26.79      0.18
27.09      0.07
27.09      0.15
27.18      0.02
27.18      0.03
27.36      0.01
27.36      0.06
27.55     19.81
27.58     14.89
27.58     16.04
27.59      0.04
27.59      0.01
27.60      1.38
27.66      0.16
27.66      0.14
27.76      0.95
27.76      0.88
27.78     22.06
27.78     22.02
27.88     15.52
28.01      0.35
28.01      0.01
28.33      0.04
28.33      0.01
28.34      0.04
28.34      0.03
28.37      0.11
28.37      0.08
28.45      0.22
28.45      0.94
28.67      0.01
28.67      0.00
28.82      0.17
29.04      0.10
29.04      0.21
29.08      0.00
29.08      0.00
29.16      0.01
29.16      0.00
29.36      0.30
29.36      0.33
29.38      0.01
29.38      0.00
29.39      0.76
29.39      0.70
29.90      0.00
29.99      0.31
29.99      0.08
30.18      0.00
30.35      0.21
30.35      0.18
30.40      0.29
30.40      0.00
30.71      3.44
30.71      2.66
30.75      0.00
30.75      0.01
30.81      0.00
30.81      0.01
30.88      8.24
30.98      5.24
31.48      0.10
31.48      0.09
31.50      0.01
31.50      0.08
31.65      0.00
31.65      0.01
31.70      0.05
31.70      0.01
31.72      0.01
31.72      0.02
31.78      0.00
32.35      0.03
32.35      0.03
32.36      0.05
32.36      0.04
32.61      0.00
32.61      0.20
32.61      0.01
32.66      0.02
32.79      0.02
32.79      0.02
32.81      0.02
32.81      0.07
32.87      0.05
32.87      0.04
33.01      0.02
33.03      0.00
33.09      0.01
33.09      0.00
33.16      0.03
33.29      0.11
33.29      0.09
33.29      0.01
33.29      0.00
33.32      0.01
33.32      0.03
33.38      0.03
33.69      2.98
33.69      3.31
33.71      0.01
33.71      0.10
33.75      2.65
33.79      0.41
33.79      0.43
33.90      0.00
33.90      0.01
33.97      0.02
33.97      0.01
34.07      0.03
34.07      0.05
34.13      0.06
34.13      0.01
34.18      0.29
34.18      0.29
34.50      0.01
34.51      0.00
34.51      0.02
34.54      0.06
34.54      0.06
34.62      0.05
34.62      0.05
34.74      0.35
34.74      0.08
34.84      0.09
34.84      0.01
34.87      0.08
34.87      0.04
35.02      0.41
35.02      0.11
35.05      0.01
35.05      0.01
35.09      0.02
35.09      0.00
35.13      0.77
35.13      1.14
35.33      0.01
35.33      0.01
35.34      0.27
35.36      6.54
35.36      7.04
35.38      0.41
35.43      1.24
35.43      1.52
35.50      0.02
35.50      0.24
35.51      0.59
35.51      0.67
35.61      6.88
35.61      0.88
35.61      0.77
35.71      0.00
35.71      0.00
35.71      0.96
35.71      0.09
35.95      0.16
35.95      0.14
35.97      0.04
35.97      0.04
36.00      5.12
36.00      4.46
36.06      0.10
36.06      0.43
36.24      0.00
36.30      5.62
36.30      5.14
36.37      0.05
36.37      0.62
36.40      0.01
36.40      0.03
36.44      0.07
36.44      0.06
36.48      7.27
36.48      7.51
36.48      0.11
36.48      0.01
36.78      0.03
36.78      0.11
36.81      0.37
36.81      0.32
36.83      0.35
36.83      0.32
37.08      0.08
37.08      0.09
37.17      0.11
37.17      0.10
37.27      0.00
37.27      0.00
37.33      0.15
37.45      0.03
37.45      0.01
37.59      0.08
37.59      0.02
37.62      0.04
37.62      0.21
37.66      0.14
37.66      0.00
37.75      0.00
37.75      0.15
37.92      0.06
37.92      0.04
37.93      0.02
37.99      0.08
37.99      0.04
38.05      0.07
38.05      0.07
38.10      0.04
38.10      0.08
38.16      0.09
38.16      0.08
38.25      0.13
38.25      0.01
38.49      0.25
38.49      0.28
38.52      1.12
38.52      1.65
38.56      0.05
38.56      0.04
38.58      0.01
38.58      0.02
38.71      6.29
38.75      0.44
38.76      0.01
38.76      0.01
38.80      1.80
38.80      2.21
38.86      0.03
38.86      0.35
38.86      0.58
38.88      7.07
38.88      7.06
38.94      0.00
38.97      1.28
38.97      1.12
38.97      0.16
38.97      0.13
39.06      0.11
39.06      0.00
39.28      0.24
39.28      0.21
39.30      0.40
39.30      0.04
39.30      0.01
39.30      0.01
39.32      0.04
39.32      0.03
39.51      0.00
39.51      0.10
39.57      0.04
39.66      0.06
39.74      0.08
39.74      0.07
39.77      0.16
39.77      0.01
39.83      0.03
39.83      0.07
40.04      0.04
40.04      0.16
40.07      0.10
40.07      0.11
40.09      0.06
40.09      0.05
40.09      0.00
40.09      0.00
40.16      2.21
40.16      2.19
40.33      0.12
40.33      0.14
40.36      0.05
40.36      0.00
40.51      0.00
40.51      0.00
40.52      0.21
40.52      0.23
40.55      0.11
40.55      0.03
40.62      0.00
40.65      3.12
40.65      0.02
40.77      0.13
40.83      0.07
40.83      0.06
40.94      0.05
40.95      0.08
40.96      0.00
40.96      0.22
41.02      0.01
41.02      0.01
41.08      0.03
41.08      0.33
41.11      1.25
41.11      0.96
41.20      8.43
41.26      4.70
41.32      1.92
41.33      0.13
41.33      0.12
41.40      0.02
41.40      0.00
41.42      0.08
41.45      0.04
41.45      0.02
41.53      0.02
41.53      0.04
41.58      0.22
41.58      0.06
41.65      0.38
41.65      0.42
41.72      0.00
41.72      0.03
41.79      0.01
41.79      0.01
41.85      0.00
41.85      0.03
41.85      0.15
41.88      0.02
41.88      0.00
41.89      0.22
41.93      0.04
41.93      0.03
42.00      0.32
42.00      0.37
42.06      0.19
42.06      0.17
42.07      0.00
42.07      0.00
42.18      0.53
42.18      0.05
42.39      0.01
42.39      0.00
42.40      0.60
42.40      0.05
42.40      0.02
42.40      0.01
42.43      2.84
42.43      2.48
42.50      0.00
42.50      0.04
42.66      0.06
42.69      3.14
42.69      2.87
42.75      0.03
42.75      0.35
42.81      0.02
42.81      0.02
42.84      4.08
42.84      4.21
42.92      0.00
42.98      0.00
42.98      0.00
43.08      0.00
43.08      0.00
43.09      0.09
43.09      0.00
43.13      0.21
43.13      0.18
43.15      0.00
43.21      3.39
43.21      3.37
43.24      0.00
43.24      0.00
43.52      0.00
43.59      0.08
43.66      0.00
43.67      4.81
43.82      0.03
43.82      0.01
43.84      0.02
43.84      0.12
44.00      0.10
44.00      0.10
44.02      0.02
44.02      0.02
44.05      0.00
44.08      0.04
44.08      0.51
44.11      0.03
44.11      0.02
44.13      0.01
44.17      0.05
44.17      0.04
44.18      0.00
44.27      0.02
44.27      0.05
44.69      0.01
44.69      0.01
44.73      0.00
44.78      0.00
44.78      0.01
44.80      0.00
44.80      0.01
44.89      0.03
44.89      0.04
45.01      0.31
45.01      0.26
45.04      0.09
45.04      0.08
45.29      0.00
45.29      0.04
45.33      0.02
45.33      0.02
45.33      0.00
45.33      0.01
45.42      0.00
45.42      0.06
45.53      0.00
45.54      0.10
45.54      0.03
45.56      0.01
45.66      0.01
45.67      0.01
45.67      0.02
45.72      0.03
45.72      0.03
45.73      0.05
45.73      0.04
45.79      0.01
45.79      0.00
45.83      0.01
45.98      0.14
45.98      0.00
46.00      0.08
46.04      0.00
46.04      0.00
46.06      0.00
46.06      0.01
46.28      0.03
46.36      0.00
46.36      0.03
46.46      0.04
46.46      0.05
46.49      0.04
46.49      0.04
46.51      0.00
46.51      0.00
46.52      0.97
46.55      0.36
46.56      0.01
46.56      0.01
46.65      0.17
46.65      0.14
46.68      0.04
46.68      0.01
46.72      0.09
46.72      0.10
46.80      0.03
46.82      0.11
46.82      0.02
46.85      0.16
46.85      0.16
46.90      0.00
46.97      0.01
47.01      0.08
47.01      0.06
47.05      0.10
47.05      0.08
47.06      0.03
47.06      0.03
47.07      1.86
47.10      1.54
47.10      1.52
47.15      0.12
47.15      0.03
47.16      0.18
47.16      0.18
47.21      0.02
47.22      0.01
47.22      0.00
47.23      0.06
47.23      0.00
47.23      0.05
47.25      0.02
47.34      0.03
47.34      0.06
47.34      0.01
47.34      0.01
47.39      0.00
47.39      0.00
47.46      0.53
47.46      0.78
47.51      0.02
47.51      0.02
47.54      0.00
47.54      0.00
47.56      0.01
47.56      0.00
47.62      0.00
47.62      0.02
47.64      2.25
47.64      2.42
47.67      0.06
47.67      0.01
47.70      0.86
47.70      1.05
47.70      0.05
47.70      0.06
47.73      0.05
47.73      0.07
47.75      0.02
47.75      0.16
47.79      0.02
47.79      0.07
47.83      2.39
47.84      0.61
47.84      0.53
48.03      0.01
48.03      0.10
48.08      0.01
48.08      0.06
48.11      0.11
48.11      0.10
48.12      0.11
48.12      0.00
48.19      0.03
48.19      0.15
48.22      0.03
48.22      0.02
48.32      0.16
48.32      0.04
48.36      0.27
48.36      0.02
48.38      0.16
48.38      0.19
48.49      0.01
48.49      0.01
48.52      0.08
48.52      0.01
48.55      0.01
48.55      0.01
48.60      0.25
48.60      0.12
48.61      0.00
48.68      0.02
48.68      0.07
48.70      0.01
48.74      0.00
48.74      0.00
48.76      0.02
48.76      0.08
48.80      0.40
48.80      0.00
48.80      0.13
48.80      0.12
48.86      0.01
48.88      0.00
48.88      0.00
48.93      0.24
48.93      0.14
49.00      0.06
49.00      0.07
49.09      1.64
49.13      0.69
49.14      0.03
49.15      0.00
49.20      0.06
49.20      0.08
49.26      1.58
49.27      1.11
49.27      1.36
49.29      0.58
49.30      0.55
49.30      0.59
49.36      0.00
49.36      0.01
49.37      0.02
49.38      0.27
49.38      0.22
49.41      0.02
49.41      0.00
49.47      0.05
49.54      0.18
49.54      0.03
49.54      0.00
49.54      0.11
49.60      1.62
49.60      1.81
49.72      0.02
49.72      0.02
49.74      0.01
49.74      0.01
49.76      0.16
49.76      0.14
49.81      0.01
49.81      0.51
49.81      2.52
49.81      2.50
49.87      0.07
49.87      0.06
49.97      1.83
49.97      1.75
50.04      0.04
50.04      0.10
50.13      0.01
50.13      0.00
50.14      0.20
50.14      0.22
50.19      0.02
50.19      0.02
50.22      0.01
50.23      0.01
50.23      0.00
50.24      0.00
50.28      0.00
50.28      0.01
50.29      0.06
50.29      0.05
50.36      0.00
50.36      0.00
50.36      0.09
50.36      0.01
50.39      0.02
50.39      0.03
50.39      0.08
50.39      0.10
50.40      0.00
50.40      0.24
50.40      0.19
50.50      0.00
50.79      0.18
50.79      0.00
50.79      0.32
50.79      0.03
50.88      0.02
50.88      0.30
50.95      0.01
50.95      0.01
50.96      0.04
51.02      0.03
51.05      0.17
51.05      0.05
51.08      0.00
51.08      0.01
51.12      0.00
51.12      0.01
51.25      0.41
51.25      0.21
51.33      0.03
51.33      0.12
51.41      0.06
51.44      0.02
51.44      0.02
51.50      1.81
51.50      1.80
51.55      0.01
51.55      0.00
51.57      0.39
51.57      0.24
51.70      0.03
51.70      0.03
51.73      0.01
51.73      0.01
51.76      0.18
51.76      0.17
51.77      0.05
51.79      0.09
51.79      0.09
51.86      0.03
51.86      0.03
51.88      0.01
51.90      2.60
51.93      0.91
51.93      0.99
51.93      0.02
52.20      0.18
52.20      0.16
52.21      0.01
52.21      0.01
52.26      0.02
52.26      0.28
52.34      0.03
52.34      0.01
52.35      0.02
52.35      0.02
52.47      0.12
52.47      0.12
52.52      0.04
52.52      0.15
52.53      0.01
52.56      0.01
52.57      0.02
52.57      0.01
52.57      0.01
52.65      0.01
52.65      0.00
52.67      0.10
52.67      0.02
52.70      0.02
52.70      0.02
52.80      0.02
52.80      0.02
52.81      0.02
52.88      0.01
52.88      0.01
52.88      0.10
52.88      0.08
52.90      2.05
52.91      0.06
52.93      0.14
52.94      0.10
52.99      0.00
52.99      0.00
53.01      0.04
53.01      0.05
53.02      0.19
53.03      0.14
53.03      0.16
53.04      2.33
53.04      2.32
53.06      0.01
53.06      0.05
53.08      0.17
53.08      0.15
53.17      0.04
53.17      0.00
53.18      0.23
53.18      0.02
53.28      0.01
53.28      0.07
53.33      0.14
53.33      0.18
53.38      0.01
53.38      0.01
53.39      1.25
53.39      1.09
53.45      0.00
53.45      0.04
53.46      0.02
53.46      0.01
53.51      0.01
53.51      0.01
53.55      0.10
53.55      0.00
53.57      0.04
53.58      0.19
53.58      0.02
53.59      0.01
53.59      0.00
53.60      1.39
53.60      1.27
53.61      0.11
53.61      0.13
53.64      0.01
53.64      0.01
53.65      0.02
53.65      0.01
53.65      0.16
53.67      0.00
53.74      1.82
53.74      1.88
53.78      0.01
53.78      0.02
53.94      0.08
53.94      0.00
53.98      0.04
53.98      0.04
53.98      0.09
53.98      0.08
53.99      0.28
53.99      0.00
54.10      0.01
54.10      0.01
54.20      0.33
54.20      0.01
54.21      0.00
54.21      0.00
54.36      0.04
54.36      0.01
54.37      0.04
54.42      0.01
54.44      0.78
54.44      0.95
54.46      0.03
54.49      0.13
54.49      0.23
54.51      0.00
54.51      0.01
54.58      0.03
54.58      0.03
54.58      0.06
54.69      0.00
54.72      0.09
54.72      0.09
54.74      1.14
54.74      1.28
54.76      0.00
54.81      0.45
54.81      0.34
54.81      0.02
54.81      0.01
54.86      0.04
54.86      0.04
54.94      0.01
54.94      0.36
54.94      0.06
54.94      0.05
54.95      0.01
54.95      0.02
54.98      0.69
55.08      1.30
55.08      1.24
55.11      0.82
55.11      0.64
55.18      0.14
55.21      0.03
55.21      0.03
55.27      0.01
55.30      0.00
55.30      0.01
55.31      0.00
55.31      0.01
55.31      0.00
55.38      0.01
55.38      0.02
55.42      0.00
55.43      0.01
55.43      0.00
55.45      0.00
55.45      0.09
55.49      0.17
55.49      0.14
55.61      0.04
55.61      0.04
55.75      0.00
55.79      1.78
55.82      0.00
55.82      0.04
55.86      0.01
55.86      0.01
55.86      0.00
55.86      0.00
55.88      0.00
55.88      0.02
55.94      0.02
55.94      0.21
56.00      0.01
56.00      0.01
56.03      0.10
56.03      0.02
56.05      0.08
56.07      0.00
56.07      0.20
56.07      0.01
56.07      0.01
56.10      0.12
56.10      0.03
56.20      0.02
56.20      0.02
56.25      0.01
56.25      0.00
56.33      0.00
56.36      0.00
56.36      0.07
56.46      0.00
56.47      0.00
56.47      0.04
56.47      0.04
56.68      0.01
56.74      0.00
56.74      0.01
56.76      0.13
56.76      0.12
56.78      0.00
56.83      0.04
56.83      0.05
56.88      0.95
56.90      0.01
56.91      0.35
56.94      0.22
56.94      0.39
56.97      0.01
56.97      0.01
56.99      0.04
56.99      0.16
56.99      0.14
57.07      0.09
57.07      0.07
57.13      0.02
57.13      0.03
57.14      0.11
57.14      0.02
57.14      0.00
57.17      0.13
57.17      0.11
57.22      0.02
57.22      0.01
57.28      0.00
57.33      2.59
57.34      0.09
57.34      0.08
57.37      1.45
57.38      1.52
57.38      1.51
57.48      0.03
57.48      0.11
57.49      0.01
57.49      0.00
57.50      0.03
57.52      0.00
57.53      0.04
57.53      0.01
57.58      0.06
57.58      0.05
57.59      0.02
57.59      0.03
57.59      0.06
57.61      0.23
57.70      0.01
57.76      0.00
57.76      0.00
57.79      0.00
57.79      0.00
57.82      0.09
57.82      0.10
57.83      0.00
57.83      0.00
57.84      0.00
57.84      0.01
57.88      0.00
57.88      0.16
57.88      0.06
57.88      0.01
57.90      0.02
57.91      0.05
57.91      0.06
58.13      0.04
58.13      0.00
58.17      0.00
58.17      0.01
58.24      0.11
58.24      0.13
58.27      0.00
58.27      0.01
58.27      0.01
58.27      0.11
58.27      0.00
58.38      0.00
58.38      0.00
58.41      0.01
58.41      0.01
58.45      0.07
58.45      0.00
58.60      0.01
58.60      0.01
58.60      0.01
58.60      0.01
58.63      0.04
58.63      0.05
58.70      0.25
58.70      0.13
58.70      0.01
58.70      0.00
58.72      0.02
58.72      0.00
58.77      0.02
58.77      0.08
58.87      0.07
58.87      0.06
58.95      0.00
58.98      0.24
58.98      0.15
59.06      0.25
59.06      0.00
59.08      0.00
59.08      0.00
59.17      0.03
59.18      0.00
59.22      0.02
59.22      0.02
59.27      0.01
59.27      0.01
59.29      0.06
59.29      0.02
59.31      0.00
59.31      0.00
59.31      0.57
59.31      0.62
59.31      0.14
59.31      0.01
59.36      0.02
59.36      0.02
59.41      0.03
59.41      0.02
59.41      0.00
59.41      0.01
59.41      0.00
59.60      0.04
59.60      0.11
59.60      0.03
59.60      0.02
59.65      0.00
59.70      0.01
59.70      0.01
59.73      0.03
59.75      0.19
59.76      0.04
59.76      0.04
59.77      0.21
59.78      0.01
59.78      0.05
59.85      0.08
59.86      0.08
59.86      0.11
59.87      0.03
59.87      0.00
59.90      0.06
59.90      0.02
59.92      0.61
59.92      0.48
60.00      0.33