File: xrpostproc/xdatcar_to_xrd/XDATCAR.txt
unknown system
           1
     4.034659   -0.019940    0.027117
     0.017887    4.985913    0.005660
     0.020281   -0.006637    4.980041
   S    H
   8  24
Direct configuration=    10
   0.774365  0.317009  0.715854
   0.277363  0.321537  0.388239
   0.276332  0.965251  0.767575
   0.780101  0.911682  0.380449
   0.764301  0.767533  0.859672
   0.261964  0.398545  0.828009
   0.223075  0.815053  0.184264
   0.754664  0.46969  0.25831
   0.247885  0.323132  0.09720938
  -0.02648289  0.201416  0.08803048
  -0.00406298  0.207097  0.502959
   0.47985  0.951838  0.538139
   0.560505  0.199525  0.538502
   0.804127  0.176129  0.303126
   0.551867  0.14848  0.115293
   0.789293  0.04786951  0.785018
   0.02560231  0.96734  0.567925
   0.561576  0.125309  0.968314
   0.955593  0.05756595  0.02831234
   0.666796  0.851345  0.123182
   0.03031282  0.582307  0.910298
   0.752749  0.377301  1.00237
   0.479044  0.606864  0.152387
   0.07306204  0.550123  0.177349
   0.256507  0.694685  0.727515
   0.481708  0.599966  0.918909
   0.337995  0.07677923  0.251071
   0.07590181  0.554901  0.534074
   0.964232  0.671608  0.597509
   0.59414  0.673367  0.595388
   0.458687  0.564111  0.530345
   0.243829  0.74475  0.43255
unknown system
           1
     4.037564   -0.057351    0.037852
     0.017845    4.958581    0.019546
     0.020193   -0.006608    4.958359
   S    H
   8  24
Direct configuration=    20
   0.777045  0.319232  0.707561
   0.285081  0.31968  0.389082
   0.283842  0.967955  0.771107
   0.78783  0.918999  0.379079
   0.763247  0.761264  0.855138
   0.265283  0.407073  0.827229
   0.230638  0.82692  0.194904
   0.75341  0.469825  0.261716
   0.27622  0.336395  0.09186220
  -0.00661759  0.208229  0.05696294
   0.01063966  0.195543  0.485711
   0.491991  0.937091  0.506465
   0.531872  0.193182  0.537116
   0.771377  0.164962  0.261503
   0.554434  0.124741  0.110193
   0.799235  0.04844131  0.807088
  -0.01832935  0.978334  0.619763
   0.577786  0.130007  0.943301
   0.976148  0.05265072  0.02444945
   0.667865  0.855777  0.11142
   0.01448956  0.580775  0.964691
   0.759677  0.404656  0.9896
   0.500105  0.623301  0.188695
   0.08998525  0.570002  0.194323
   0.2411  0.694021  0.727189
   0.497256  0.598655  0.931387
   0.318405  0.09033166  0.231409
   0.09153777  0.552988  0.51895
   0.927489  0.667104  0.548621
   0.591735  0.658836  0.627591
   0.501433  0.591946  0.502414
   0.267643  0.77088  0.464111
unknown system
           1
     4.042273   -0.093080    0.048100
     0.017812    4.933539    0.033337
     0.020111   -0.006581    4.938184
   S    H
   8  24
Direct configuration=    30
   0.785086  0.316291  0.696798
   0.300681  0.323799  0.392118
   0.291108  0.96889  0.782314
   0.792842  0.915557  0.383584
   0.770721  0.758071  0.850033
   0.261902  0.41443  0.829832
   0.243456  0.835086  0.197179
   0.757509  0.473248  0.262735
   0.333712  0.377346  0.09094250
  -0.00208556  0.229362  0.08864552
   0.03497763  0.162267  0.466778
   0.475784  0.938879  0.531332
   0.554563  0.163151  0.531427
   0.764996  0.213291  0.267523
   0.60413  0.153749  0.09399019
   0.783935  0.04411490  0.826528
   0.03581145  0.980485  0.606639
   0.492886  0.166219  0.9443
   0.95864  0.09621304  0.02964784
   0.656144  0.905209  0.09700166
   0.111177  0.651674  0.974034
   0.717636  0.379311  0.985054
   0.501377  0.656543  0.216694
   0.08108980  0.54183  0.218282
   0.224299  0.696792  0.707513
   0.47446  0.625205  0.961447
   0.359629  0.09205798  0.239104
   0.113763  0.554844  0.511926
   0.918635  0.655506  0.577842
   0.514425  0.635892  0.636608
   0.481451  0.611632  0.487811
   0.237266  0.760785  0.487101
unknown system
           1
     4.048969   -0.127338    0.058128
     0.017785    4.911450    0.046191
     0.020034   -0.006556    4.919492
   S    H
   8  24
Direct configuration=    40
   0.796686  0.319532  0.693937
   0.308656  0.330888  0.400481
   0.291881  0.961806  0.794014
   0.801348  0.915725  0.382184
   0.789097  0.763421  0.845456
   0.254614  0.421505  0.828071
   0.247551  0.838741  0.195981
   0.769131  0.485369  0.252168
   0.317436  0.393478  0.135984
   0.00936989  0.245181  0.11986
   0.04774174  0.161486  0.374009
   0.531522  0.913655  0.569296
   0.504606  0.164666  0.521424
   0.789967  0.19501  0.34143
   0.685946  0.146438  0.09813905
   0.861971  0.08230901  0.777824
   0.106671  1.0057  0.567881
   0.463678  0.166559  1.00332
   1.03747  0.11525  0.03955786
   0.714088  0.917566  0.06610410
   0.02014415  0.63906  0.980948
   0.761167  0.395404  0.97141
   0.519621  0.681223  0.160653
   0.107448  0.566983  0.177568
   0.21203  0.694036  0.699763
   0.49919  0.596605  0.931846
   0.397649  0.102071  0.188537
   0.08969929  0.546787  0.504529
   0.958229  0.674508  0.583612
   0.561726  0.646137  0.639806
   0.477111  0.616021  0.505255
   0.254404  0.765603  0.448636
unknown system
           1
     4.058091   -0.160593    0.067686
     0.017764    4.892740    0.057380
     0.019971   -0.006536    4.903892
   S    H
   8  24
Direct configuration=    50
   0.797961  0.325839  0.693508
   0.306223  0.3413  0.405785
   0.295957  0.955999  0.79935
   0.805404  0.918366  0.379481
   0.813018  0.777753  0.846183
   0.257163  0.417238  0.827813
   0.268539  0.841456  0.200848
   0.772549  0.491679  0.246605
   0.358813  0.364055  0.116297
   0.01445206  0.236021  0.07831103
   0.06537786  0.151963  0.353894
   0.567404  0.948417  0.600706
   0.53015  0.127112  0.626789
   0.675819  0.203055  0.370183
   0.67866  0.165899  0.06848031
   0.854549  0.06211684  0.743201
   0.110142  1.00822  0.554402
   0.604134  0.124063  0.908686
   1.03171  0.09452410  0.04314889
   0.758665  0.937263  0.08939482
   0.02059924  0.558969  0.945226
   0.725185  0.376888  0.979129
   0.5296  0.684913  0.111505
   0.08627909  0.587755  0.207556
   0.253036  0.674585  0.672551
   0.529271  0.555779  0.904104
   0.420431  0.107615  0.203282
   0.131509  0.570105  0.454883
   0.985976  0.722996  0.518997
   0.606288  0.629469  0.623056
   0.540626  0.605858  0.466909
   0.407528  0.797246  0.444909
unknown system
           1
     4.070147   -0.192682    0.076379
     0.017750    4.877493    0.067434
     0.019922   -0.006520    4.891887
   S    H
   8  24
Direct configuration=    60
   0.811371  0.33445  0.684959
   0.28369  0.349418  0.401987
   0.297362  0.949287  0.798243
   0.809713  0.923559  0.378412
   0.835482  0.781686  0.841474
   0.270697  0.411387  0.821275
   0.284636  0.848026  0.209612
   0.771622  0.48456  0.236781
   0.271539  0.346925  0.08282907
  -0.02187260  0.247701  0.05757560
   0.00671912  0.195936  0.315504
   0.58199  0.961454  0.586456
   0.504639  0.241607  0.600925
   0.581222  0.162433  0.329917
   0.653735  0.16733  0.09147426
   0.866587  0.08524862  0.773147
   0.14814  1.06172  0.567539
   0.563997  0.06460892  0.977363
   0.993656  0.113925  0.00255603
   0.779359  0.905653  0.09098616
   0.05285792  0.63226  1.00295
   0.648931  0.352821  0.967242
   0.568276  0.661221  0.129772
   0.164424  0.541615  0.195967
   0.351286  0.721854  0.66727
   0.493821  0.671223  0.892322
   0.409866  0.08777993  0.14381
   0.125123  0.599053  0.546159
   0.985062  0.712077  0.565975
   0.58825  0.628362  0.632397
   0.591785  0.622109  0.461773
   0.341298  0.852115  0.483068
unknown system
           1
     4.084711   -0.224319    0.084976
     0.017745    4.865460    0.076859
     0.019892   -0.006510    4.884627
   S    H
   8  24
Direct configuration=    70
   0.833025  0.352631  0.676135
   0.249891  0.357354  0.39422
   0.294376  0.962798  0.798868
   0.826725  0.932876  0.383017
   0.846576  0.78342  0.83804
   0.276985  0.412877  0.821401
   0.293751  0.847184  0.215196
   0.771559  0.465543  0.228587
   0.250284  0.326279  0.07376670
  -0.05375277  0.272581  0.04654052
  -0.02457118  0.155822  0.273961
   0.538138  1.0199  0.599371
   0.57162  0.21103  0.497034
   0.535886  0.18075  0.285028
   0.688789  0.134029  0.104579
   0.821407  0.06305102  0.780961
   0.132136  1.0829  0.571432
   0.588174  0.115757  0.962094
   1.07015  0.07727894  0.00573485
   0.763642  0.841371  0.108135
   0.09529454  0.59882  0.932975
   0.633131  0.435375  0.897834
   0.496313  0.569171  0.140504
   0.145182  0.614897  0.207286
   0.396782  0.689713  0.671093
   0.504565  0.705233  0.949102
   0.260542  0.165429  0.181879
   0.144927  0.619856  0.525403
   0.970957  0.701724  0.531779
   0.590157  0.59915  0.62472
   0.532571  0.648698  0.441806
   0.283733  0.837202  0.516147
unknown system
           1
     4.101315   -0.255325    0.092897
     0.017749    4.856837    0.085208
     0.019878   -0.006505    4.881114
   S    H
   8  24
Direct configuration=    80
   0.845211  0.362338  0.661981
   0.22954  0.363274  0.398369
   0.291776  0.989445  0.788
   0.83962  0.941407  0.38718
   0.850527  0.784594  0.835492
   0.28274  0.410324  0.819078
   0.311753  0.839542  0.221113
   0.769792  0.436857  0.221874
   0.285453  0.345454  0.116668
  -0.103108  0.249288 -0.05022544
  -0.05662876  0.162746  0.187201
   0.592126  1.00363  0.588992
   0.502898  0.239715  0.511485
   0.59815  0.12765  0.2923
   0.614497  0.06912385  0.05051319
   0.762753  0.08211384  0.762484
   0.133189  1.0652  0.533822
   0.501471  0.164839  0.960539
   0.96895  0.09919909 -0.00607429
   0.718973  0.839347  0.12018
   0.114674  0.615638  0.965352
   0.624516  0.456803  0.934407
   0.431182  0.57595  0.138727
  -0.09786615  0.72257  0.165037
   0.335018  0.69561  0.714158
   0.515819  0.698157  0.861086
   0.236975  0.09068700  0.171245
   0.160259  0.633632  0.522043
   0.917031  0.6586  0.470892
   0.589668  0.558413  0.531228
   0.518691  0.693023  0.468727
   0.312636  0.860554  0.479984
unknown system
           1
     4.119831   -0.286346    0.101519
     0.017760    4.850827    0.093289
     0.019878   -0.006505    4.880993
   S    H
   8  24
Direct configuration=    90
   0.83343  0.351112  0.633511
   0.229751  0.36251  0.391559
   0.294863  1.01188  0.778776
   0.850116  0.946244  0.389131
   0.848354  0.785887  0.831293
   0.300496  0.412431  0.828137
   0.322337  0.83542  0.217056
   0.772599  0.406807  0.20453
   0.301643  0.380988  0.09654306
  -0.106988  0.3228 -0.08596076
  -0.01156866  0.123434  0.130718
   0.561791  1.00364  0.588444
   0.548862  0.249983  0.526509
   0.546063  0.165825  0.267553
   0.607894  0.08638079 -0.01798406
   0.768033  0.04581947  0.752082
   0.125597  1.074  0.522652
   0.586483  0.239589  0.998326
   0.917924  0.00375805 -0.01064602
   0.571969  0.895805  0.02140251
   0.134423  0.570503  1.04741
   0.612177  0.490457  0.939733
   0.534997  0.565951  0.201334
  -0.108817  0.679682  0.16416
   0.160045  0.713289  0.658744
   0.516813  0.707925  0.820858
   0.272209  0.154693  0.159967
   0.169633  0.663156  0.477178
   0.932302  0.690835  0.484996
   0.516605  0.567774  0.493029
   0.622556  0.71737  0.523564
   0.354756  0.909463  0.483926
unknown system
           1
     4.140912   -0.315868    0.110225
     0.017778    4.846616    0.101375
     0.019892   -0.006510    4.884634
   S    H
   8  24
Direct configuration=   100
   0.819986  0.337432  0.618365
   0.248081  0.361167  0.377551
   0.292689  1.03055  0.77794
   0.852424  0.947424  0.379978
   0.840637  0.77031  0.848538
   0.317709  0.434549  0.829394
   0.321487  0.82945  0.19749
   0.78826  0.389045  0.191789
   0.372688  0.424752  0.115972
  -0.01882666  0.366055 -0.04382094
   0.09202879  0.167829  0.04729439
   0.583066  0.934771  0.606337
   0.511495  0.202505  0.503357
   0.555509  0.10424  0.29397
   0.644696  0.08843895 -0.100036
   0.884056  0.09741244  0.76446
   0.164294  1.05919  0.534694
   0.577229  0.221366  0.991339
   0.913924 -0.00606548  0.08027890
   0.597  0.820196  0.02205189
   0.135493  0.653396  0.993348
   0.650441  0.532  0.863611
   0.524818  0.650174  0.26764
  -0.111491  0.721963  0.18624
   0.105446  0.660179  0.680505
   0.334116  0.745343  0.718413
   0.320836  0.122035  0.115009
   0.152732  0.641938  0.482904
   0.895074  0.646499  0.446127
   0.444595  0.546388  0.542237
   0.596259  0.672199  0.59273
   0.475715  0.824991  0.505203
unknown system
           1
     4.163781   -0.343214    0.118212
     0.017800    4.844475    0.108596
     0.019919   -0.006519    4.891187
   S    H
   8  24
Direct configuration=   110
   0.806178  0.315865  0.609344
   0.249285  0.352473  0.357368
   0.296301  1.04368  0.777235
   0.852117  0.948066  0.371867
   0.828455  0.762954  0.868112
   0.339944  0.46158  0.827715
   0.309707  0.815707  0.184904
   0.804658  0.385534  0.181813
   0.404442  0.514727  0.123587
   0.00996727  0.412474 -0.08459798
   0.08635066  0.101653  0.02860732
   0.590982  0.948064  0.636632
   0.498105  0.193456  0.444601
   0.497144 -0.00615325  0.310663
   0.710802  0.05578406 -0.145263
   0.999581  0.19386  0.802097
   0.205768  0.912872  0.480536
   0.619728  0.128064  1.03131
   0.896684  0.121007  0.08386512
   0.565908  0.752154  0.03846091
   0.11594  0.726634  0.997271
   0.725452  0.388178  0.913078
   0.6006  0.672367  0.330079
  -0.148605  0.666404  0.180565
   0.04012210  0.567182  0.65608
   0.180635  0.741565  0.632928
   0.291905  0.188857  0.175116
   0.04358269  0.64164  0.410983
   0.821451  0.60513  0.466062
   0.519051  0.495692  0.541422
   0.725129  0.681575  0.625626
   0.408277  0.722261  0.529334
unknown system
           1
     4.187718   -0.369721    0.126500
     0.017826    4.843940    0.115609
     0.019955   -0.006531    4.900048
   S    H
   8  24
Direct configuration=   120
   0.792659  0.282166  0.599501
   0.232772  0.340991  0.340297
   0.314996  1.04919  0.757193
   0.853144  0.960115  0.374613
   0.815898  0.773632  0.872564
   0.36953  0.483498  0.816713
   0.278279  0.809915  0.189797
   0.814022  0.385584  0.178852
   0.465059  0.496407  0.12058
   0.08613141  0.432602 -0.02136909
   0.03823746 -0.02002465  0.04644269
   0.457625  0.84609  0.598107
   0.487204  0.164389  0.470979
   0.474526  0.107308  0.277253
   0.701458  0.02860541 -0.115358
   1.01828  0.132241  0.709888
   0.164968  0.973698  0.527299
   0.543886  0.05559669  1.07267
   0.959135  0.142079 -0.02207932
   0.531769  0.752159  0.03101481
   0.158566  0.675564  0.931981
   0.671319  0.310692  0.869176
   0.508132  0.763562  0.392844
  -0.187038  0.686322  0.226939
   0.06659387  0.493292  0.659455
   0.09054515  0.683676  0.538915
   0.250244  0.20015  0.103366
   0.09875808  0.625414  0.334388
   0.798527  0.604263  0.495464
   0.512311  0.504177  0.455812
   0.672752  0.772175  0.554985
   0.355324  0.684014  0.553483
unknown system
           1
     4.212424   -0.396502    0.133665
     0.017853    4.844220    0.121837
     0.020000   -0.006545    4.911063
   S    H
   8  24
Direct configuration=   130
   0.772939  0.268279  0.606659
   0.221863  0.326434  0.32406
   0.333465  1.03904  0.74331
   0.848609  0.978428  0.362162
   0.811337  0.782476  0.859682
   0.399104  0.492655  0.805753
   0.251451  0.819483  0.194853
   0.826744  0.394249  0.165
   0.510494  0.48124  0.119438
   0.04421514  0.439729 -0.07910308
  -0.123887 -0.01469991  0.06975575
   0.358951  0.821872  0.573784
   0.41641  0.194508  0.472398
   0.568689  0.174869  0.227129
   0.592205  0.06054016 -0.07471060
   0.918156  0.04517467  0.792703
   0.156142  0.986223  0.539952
   0.488825  0.05987023  1.09623
   1.07932  0.191947 -0.03175057
   0.58172  0.754559  0.09010045
   0.207991  0.749991  0.848612
   0.725446  0.269729  0.924466
   0.46481  0.796826  0.408777
  -0.258686  0.683157  0.290639
  -0.01370451  0.415149  0.774493
  -0.03886298  0.706444  0.570644
   0.234232  0.215102  0.00340339
   0.01550886  0.578226  0.469289
   0.740256  0.548055  0.568911
   0.492399  0.524697  0.389695
   0.64448  0.774294  0.585974
   0.162112  0.585382  0.560543
unknown system
           1
     4.236768   -0.422651    0.140125
     0.017881    4.844808    0.128321
     0.020053   -0.006562    4.923996
   S    H
   8  24
Direct configuration=   140
   0.767602  0.269047  0.622212
   0.212746  0.327696  0.303817
   0.337851  1.01549  0.730408
   0.837751  0.989883  0.337921
   0.812374  0.769043  0.842395
   0.40845  0.492551  0.79055
   0.226438  0.816475  0.198985
   0.826741  0.42251  0.14716
   0.43951  0.517571  0.06375914
   0.170286  0.608752 -0.02685578
  -0.220044  0.05686523  0.06630968
   0.259896  0.693207  0.598652
   0.457896  0.126347  0.454917
   0.597075  0.255274  0.292198
   0.487455  0.149398 -0.01443023
   0.892516  0.08744306  0.778555
   0.08742362  0.950901  0.514896
   0.449022  0.05030966  1.21896
   1.08946  0.109445 -0.02435353
   0.563297  0.732533  0.141112
   0.236462  0.792443  0.89512
   0.735805  0.210816  0.940339
   0.541884  0.811821  0.387801
  -0.123624  0.654218  0.316031
   0.08763712  0.424748  0.760831
  -0.02449104  0.797313  0.589405
   0.325107  0.23799  0.07989802
  -0.105693  0.629399  0.500185
   0.542029  0.54493  0.473827
   0.486712  0.571931  0.344078
   0.5695  0.882155  0.629217
   0.203352  0.532043  0.550193
unknown system
           1
     4.259262   -0.448163    0.145189
     0.017909    4.846204    0.133950
     0.020108   -0.006580    4.937457
   S    H
   8  24
Direct configuration=   150
   0.771049  0.286482  0.638119
   0.200525  0.328324  0.304112
   0.335082  1.00166  0.720128
   0.831907  1.00007  0.302954
   0.816369  0.751279  0.846429
   0.40983  0.489317  0.772329
   0.205847  0.808501  0.210641
   0.820271  0.451531  0.127953
   0.498279  0.507433  0.07576541
   0.116324  0.557446  0.01755744
  -0.229039 -0.00514995 -0.02667229
   0.224786  0.675209  0.583626
   0.356086  0.08114706  0.400292
   0.542408  0.349905  0.320054
   0.517627  0.06502808 -0.00712734
   1.02807  0.08948962  0.73515
   0.111843  1.02543  0.52011
   0.543461  0.03422391  1.28935
   1.12151  0.07958174 -0.02246108
   0.575234  0.812665  0.05577403
   0.324639  0.776138  0.892203
   0.669803  0.23841  0.955345
   0.662817  0.694964  0.440011
  -0.08039748  0.627492  0.349679
   0.05558135  0.331128  0.832049
   0.00687798  0.706468  0.582827
   0.268845  0.268992  0.02404088
  -0.214973  0.536957  0.547675
   0.504922  0.580696  0.4638
   0.503605  0.661132  0.253534
   0.654649  0.860108  0.594013
   0.08053978  0.512504  0.485775
unknown system
           1
     4.279961   -0.473542    0.148890
     0.017935    4.847397    0.139167
     0.020152   -0.006595    4.948359
   S    H
   8  24
Direct configuration=   160
   0.777558  0.28715  0.651629
   0.207814  0.322461  0.308512
   0.328077  0.988016  0.710339
   0.819588  1.01401  0.271826
   0.826968  0.733972  0.83371
   0.38588  0.472149  0.760494
   0.196526  0.812637  0.224437
   0.810852  0.454475  0.113663
   0.463305  0.494096  0.160304
   0.160846  0.551779 -0.07452532
  -0.09237722  0.06996424 -0.103248
   0.291124  0.710804  0.518235
   0.316859  0.07437248  0.387898
   0.588122  0.317381  0.441736
   0.496197  0.04649684 -0.02423376
   0.997141  0.09448059  0.686021
  -0.01514821  0.970547  0.509338
   0.505526  0.00334910  1.31863
   1.08434  0.04218048  0.00762333
   0.583122  0.828359  0.05439872
   0.389004  0.740797  0.919216
   0.606813  0.177336  1.02543
   0.634631  0.682009  0.39097
  -0.07821165  0.664859  0.313055
  -0.02308489  0.31288  0.879515
   0.08352012  0.703927  0.650297
   0.182472  0.26432  0.00406256
  -0.223746  0.597335  0.499442
   0.39378  0.572364  0.392372
   0.563693  0.75061  0.235128
   0.674406  0.882754  0.614123
   0.05164499  0.474664  0.612949
unknown system
           1
     4.298058   -0.499194    0.152143
     0.017965    4.847862    0.146079
     0.020185   -0.006606    4.956354
   S    H
   8  24
Direct configuration=   170
   0.767508  0.280224  0.662264
   0.214557  0.324675  0.307973
   0.327991  0.980284  0.702969
   0.810677  1.03158  0.248531
   0.845202  0.733516  0.816095
   0.36035  0.441982  0.755861
   0.194674  0.812836  0.227749
   0.796332  0.428313  0.115909
   0.50501  0.483975  0.05753172
   0.174826  0.604796 -0.04967873
  -0.08235581  0.05043600 -0.07252593
   0.362637  0.779807  0.507321
   0.352199  0.144039  0.458308
   0.602172  0.309763  0.406607
   0.4378  0.121629 -0.03354271
   1.03307  0.08040191  0.549172
  -0.151752  0.798533  0.521607
   0.508086  0.02350846  1.36159
   1.15476 -0.01272183 -0.03124528
   0.632673  0.844442 -0.00703705
   0.389658  0.812257  0.916228
   0.508819  0.155982  1.10741
   0.557313  0.689477  0.445284
  -0.00958809  0.600353  0.399525
   0.01804085  0.254771  0.951712
   0.159826  0.687343  0.666432
   0.318705  0.261513  0.01837275
  -0.223498  0.590452  0.507705
   0.417709  0.572778  0.401483
   0.572205  0.734355  0.179022
   0.607506  0.860868  0.639934
   0.08580575  0.400569  0.659393
unknown system
           1
     4.313139   -0.524438    0.155843
     0.017988    4.845911    0.153623
     0.020207   -0.006613    4.961855
   S    H
   8  24
Direct configuration=   180
   0.746438  0.257196  0.68466
   0.204498  0.329179  0.309771
   0.317353  0.976427  0.701317
   0.815187  1.03371  0.247385
   0.863058  0.735364  0.796229
   0.343422  0.427897  0.760552
   0.185562  0.808278  0.217572
   0.783705  0.414311  0.115276
   0.556606  0.558069 -0.02973979
   0.242453  0.605747  0.05129483
  -0.147933  0.04642855 -0.143212
   0.383322  0.777176  0.477318
   0.514168  0.186573  0.496677
   0.663718  0.449571  0.333206
   0.58534  0.09859095 -0.05596156
   0.999434  0.00458645  0.534217
  -0.205336  0.760222  0.408553
   0.477436 -0.00684774  1.36732
   1.19684 -0.00082096  0.01403456
   0.588199  0.88255  0.02734517
   0.461748  0.748993  0.893449
   0.425416  0.06914236  1.12105
   0.609772  0.674791  0.484168
   0.110881  0.602826  0.470132
   0.09323609  0.132615  0.923232
   0.133418  0.614715  0.628518
   0.274013  0.326325  0.02929799
  -0.204247  0.527406  0.501299
   0.452017  0.517957  0.41014
   0.576638  0.707143  0.194662
   0.66763  0.904485  0.69358
   0.06137774  0.375721  0.563147
unknown system
           1
     4.324074   -0.548613    0.158839
     0.017999    4.841361    0.160123
     0.020220   -0.006617    4.965077
   S    H
   8  24
Direct configuration=   190
   0.723987  0.237165  0.713192
   0.199903  0.326941  0.319893
   0.296306  0.975083  0.693499
   0.825128  1.02926  0.261366
   0.87939  0.727273  0.774363
   0.32871  0.42424  0.765979
   0.179525  0.787806  0.201673
   0.776389  0.410423  0.106257
   0.541852  0.544391  0.01514633
   0.214573  0.579338  0.00836346
  -0.09595782  0.00586362 -0.123861
   0.501469  0.797207  0.530822
   0.629304  0.212913  0.373524
   0.695655  0.461517  0.439574
   0.530482  0.07670145  0.01640680
   1.05444 -0.03776395  0.507029
  -0.208835  0.702379  0.252036
   0.422403  0.00901355  1.30471
   1.18212  0.03369059 -0.05501379
   0.594551  0.831982  0.05815918
   0.467241  0.79934  0.804806
   0.412925  0.14207  1.09746
   0.602041  0.643705  0.547442
   0.03738972  0.674649  0.427195
   0.00588757  0.209125  0.934415
   0.148069  0.588228  0.768732
   0.299051  0.312628  0.07876145
  -0.09074826  0.553453  0.523918
   0.383837  0.578736  0.405217
   0.545419  0.710355  0.188315
   0.695264  0.910383  0.577942
   0.01260527  0.214211  0.634226
unknown system
           1
     4.331215   -0.573683    0.161307
     0.017999    4.835044    0.165707
     0.020221   -0.006618    4.965295
   S    H
   8  24
Direct configuration=   200
   0.706031  0.217593  0.732682
   0.212408  0.327748  0.352128
   0.300294  0.968406  0.66747
   0.829155  1.02853  0.273265
   0.861009  0.726536  0.763459
   0.320923  0.422481  0.765453
   0.172931  0.769413  0.169452
   0.76104  0.409521  0.09747167
   0.455338  0.5181  0.05976895
   0.233253  0.572141  0.01535482
  -0.147046 -0.05284573 -0.01259462
   0.492892  0.809078  0.47824
   0.519384  0.327268  0.404227
   0.714399  0.458051  0.482251
   0.510279  0.00892507  0.03847356
   1.09195 -0.06690516  0.450152
  -0.216148  0.670682  0.234155
   0.341368  0.01831828  1.3011
   1.12067  0.06244523 -0.04241656
   0.602445  0.872353 -0.09395614
   0.517708  0.69834  0.843847
   0.518216  0.152982  1.12094
   0.494611  0.557531  0.527007
   0.02518242  0.658625  0.454911
   0.04448950  0.412547  0.961693
   0.185174  0.672139  0.820021
   0.221642  0.22682 -0.00320437
   0.00347218  0.420762  0.529012
   0.405521  0.662185  0.402386
   0.477527  0.680645  0.186192
   0.800651  0.867111  0.563034
   0.00101597  0.09394625  0.67893
unknown system
           1
     4.334916   -0.598780    0.164428
     0.017989    4.827103    0.170363
     0.020208   -0.006613    4.962054
   S    H
   8  24
Direct configuration=   210
   0.706477  0.205871  0.738089
   0.236113  0.32529  0.374104
   0.310036  0.960128  0.642719
   0.819731  1.02373  0.285073
   0.83719  0.716449  0.758805
   0.308055  0.417045  0.756346
   0.164913  0.761336  0.146341
   0.760929  0.412021  0.102156
   0.438856  0.386599  0.08331117
   0.221936  0.425395  0.100468
  -0.232486 -0.100713  0.01245739
   0.534744  0.990021  0.444316
   0.616404  0.353026  0.428741
   0.77774  0.56038  0.438555
   0.393505 -0.02649179  0.02605462
   1.08075 -0.186167  0.431325
  -0.312422  0.695721  0.318805
   0.330642  0.08455574  1.27818
   1.06892  0.03836382  0.00408001
   0.557778  0.934171 -0.115995
   0.557328  0.609304  0.814435
   0.478082  0.164219  1.13857
   0.578898  0.643893  0.508447
   0.04604939  0.578346  0.524861
   0.03116501  0.451806  0.854412
   0.300347  0.685053  0.794392
   0.224167  0.181071  0.04528727
  -0.101658  0.333689  0.588225
   0.414555  0.672412  0.324452
   0.607025  0.817556  0.137745
   0.735811  0.869094  0.554972
  -0.00742319  0.105147  0.796455
unknown system
           1
     4.335574   -0.621644    0.167154
     0.017966    4.817404    0.173257
     0.020185   -0.006606    4.956371
   S    H
   8  24
Direct configuration=   220
   0.705257  0.197203  0.73093
   0.247784  0.318561  0.399449
   0.30153  0.953195  0.614807
   0.819735  1.02265  0.290088
   0.828943  0.701328  0.769536
   0.295188  0.400008  0.742372
   0.165443  0.741947  0.129904
   0.766948  0.416677  0.117337
   0.461744  0.439732  0.00217070
   0.04945380  0.349444  0.07978186
  -0.297829 -0.143285 -0.06988516
   0.47789  1.06695  0.27579
   0.653974  0.310233  0.447548
   0.940588  0.629371  0.353566
   0.243275  0.01595761 -0.04153810
   1.08756 -0.250712  0.461756
  -0.405396  0.635519  0.346664
   0.275478  0.06929517  1.1814
   0.963927  0.04648592  0.05896518
   0.565607  0.996831 -0.09000795
   0.514315  0.636676  1.04197
   0.530802  0.130383  1.03809
   0.512782  0.654355  0.51946
   0.03215186  0.562045  0.554648
  -0.03728210  0.416499  0.787418
   0.347559  0.770225  0.87299
   0.23176  0.240925 -0.06177220
  -0.05717321  0.388519  0.396863
   0.373442  0.568429  0.262437
   0.541839  0.771444  0.184526
   0.816511  1.008  0.566741
  -0.04498788  0.08618337  0.832541
unknown system
           1
     4.331526   -0.643539    0.169207
     0.017940    4.806739    0.176286
     0.020163   -0.006599    4.951092
   S    H
   8  24
Direct configuration=   230
   0.70761  0.202646  0.714373
   0.250859  0.287217  0.391465
   0.288743  0.924601  0.588157
   0.81678  1.00405  0.289824
   0.827821  0.673922  0.787975
   0.307415  0.408488  0.74362
   0.173239  0.729627  0.112001
   0.770586  0.433587  0.137439
   0.44374  0.538028 -0.02398073
   0.09022053  0.319127 -0.04098834
  -0.340742 -0.199688  0.01888068
   0.478277  1.00886  0.214584
   0.609088  0.334147  0.492445
   0.86266  0.76636  0.359645
   0.111812  0.03524759 -0.07846034
   1.20598 -0.322891  0.394876
  -0.345021  0.629091  0.518526
   0.224685  0.03198487  1.21018
   0.808541  0.01633586 -0.00224948
   0.484285  0.974369 -0.01391473
   0.547565  0.721916  1.15225
   0.478527  0.228029  1.11317
   0.50226  0.6915  0.614051
  -0.06439218  0.589148  0.499085
  -0.00896753  0.359387  0.672828
   0.355587  0.835626  0.825274
   0.197979  0.206154  0.08374871
  -0.04402070  0.443348  0.401344
   0.396722  0.583569  0.267952
   0.544084  0.850008  0.362981
   0.963704  1.00324  0.567338
  -0.106913  0.00360140  0.755574
unknown system
           1
     4.324586   -0.664888    0.171486
     0.017912    4.795494    0.179272
     0.020141   -0.006591    4.945647
   S    H
   8  24
Direct configuration=   240
   0.692388  0.210306  0.699217
   0.253262  0.250968  0.360384
   0.275487  0.893605  0.579029
   0.822026  0.997438  0.281183
   0.838055  0.656243  0.811185
   0.32699  0.418257  0.756619
   0.171799  0.723158  0.07794765
   0.779761  0.44419  0.156674
   0.415066  0.576156 -0.00320766
  -0.00466704  0.293647 -0.05054892
  -0.363646 -0.170488 -0.06084089
   0.525934  1.09941  0.157219
   0.595029  0.344777  0.402837
   0.784726  0.705963  0.460212
   0.200846  0.05980681 -0.02644488
   1.27558 -0.459405  0.362507
  -0.376521  0.53606  0.516428
   0.192405 -0.187497  1.35271
   0.842499  0.108763 -0.00799635
   0.414125  1.09176 -0.00995094
   0.59799  0.775646  1.26225
   0.481658  0.354369  1.06594
   0.45586  0.628161  0.644835
  -0.01094347  0.569571  0.419984
  -0.00580624  0.236545  0.665678
   0.401253  0.859509  0.849644
   0.136454  0.329566  0.124206
  -0.00068098  0.41883  0.481104
   0.552699  0.593414  0.354205
   0.636931  0.835767  0.563358
   0.944564  0.976827  0.535303
  -0.249784 -0.06440868  0.672847
unknown system
           1
     4.315088   -0.684952    0.174201
     0.017881    4.784688    0.181154
     0.020118   -0.006584    4.940098
   S    H
   8  24
Direct configuration=   250
   0.685093  0.229018  0.695444
   0.257023  0.20752  0.31695
   0.259655  0.872977  0.584198
   0.825104  0.989178  0.252284
   0.861393  0.65136  0.827199
   0.329605  0.414219  0.765085
   0.167794  0.734364  0.04047457
   0.788543  0.451488  0.173033
   0.525131  0.654701  0.171814
  -0.105984  0.269916 -0.08310818
  -0.375473 -0.05717917 -0.01580841
   0.536498  1.10082  0.157851
   0.549498  0.162326  0.445085
   0.929966  0.712655  0.505226
   0.19344  0.07234141 -0.00291542
   1.37678 -0.513864  0.294846
  -0.36848  0.476861  0.505221
   0.244645 -0.341187  1.34192
   0.972174  0.00756518 -0.04760520
   0.380177  1.14245 -0.02260334
   0.52348  0.819088  1.19253
   0.509414  0.445094  1.02011
   0.520147  0.762384  0.582236
   0.01354533  0.54833  0.434967
   0.117303  0.01927685  0.762824
   0.422717  0.898623  0.902807
   0.136727  0.359726  0.06712413
  -0.06498936  0.359258  0.540867
   0.599576  0.62104  0.389897
   0.761304  0.755406  0.551671
   0.96289  1.06865  0.586842
  -0.393566 -0.132128  0.759806
unknown system
           1
     4.305210   -0.702805    0.177368
     0.017845    4.773733    0.181819
     0.020094   -0.006576    4.934170
   S    H
   8  24
Direct configuration=   260
   0.688212  0.228212  0.688757
   0.246253  0.173956  0.271493
   0.236256  0.8577  0.589343
   0.835769  0.975978  0.230775
   0.850371  0.646572  0.813545
   0.313993  0.407103  0.775921
   0.195478  0.745268  0.03419775
   0.796148  0.452649  0.196284
   0.672594  0.730811  0.193467
  -0.126816  0.240231 -0.06084959
  -0.260432  0.04331658 -0.03697467
   0.491987  1.10369  0.118917
   0.610678  0.00938532  0.461041
   1.07038  0.745476  0.334269
   0.147663  0.128254 -0.02207144
   1.38925 -0.477625  0.333512
  -0.488261  0.404738  0.524039
   0.286353 -0.344536  1.39909
   0.94513  0.02784088 -0.133129
   0.532451  1.15695 -0.09188656
   0.382799  0.868181  1.23441
   0.464373  0.487824  1.06995
   0.598069  0.817057  0.552849
   0.08057606  0.357024  0.364396
   0.235153  0.103825  0.79911
   0.535106  0.907064  0.879018
   0.140393  0.355376  0.07221580
   0.02300563  0.344957  0.55034
   0.559295  0.640945  0.495819
   0.828429  0.77962  0.444557
   0.924083  1.04475  0.673456
  -0.411395 -0.226201  0.832702
unknown system
           1
     4.295289   -0.719783    0.178553
     0.017809    4.762921    0.182572
     0.020069   -0.006568    4.927921
   S    H
   8  24
Direct configuration=   270
   0.714093  0.218227  0.660514
   0.260777  0.154359  0.240283
   0.215674  0.846982  0.588923
   0.836979  0.968283  0.216186
   0.825747  0.630065  0.783514
   0.288943  0.410128  0.789419
   0.239093  0.756232  0.03757448
   0.788964  0.449062  0.228537
   0.560007  0.71035  0.160799
   0.01691371  0.413822 -0.09225853
  -0.268312 -0.06635287 -0.04636279
   0.614958  1.14871  0.159865
   0.576982  0.04292687  0.40072
   0.98221  0.656597  0.28115
   0.120486  0.04588084 -0.08133746
   1.47785 -0.428977  0.351914
  -0.637376  0.317483  0.401203
   0.265347 -0.494378  1.41726
   1.01532  0.05999776 -0.214896
   0.451613  1.23899 -0.02690821
   0.453855  0.819329  1.29656
   0.407936  0.450558  1.12422
   0.636287  0.798411  0.658203
  -0.03858256  0.357718  0.461821
   0.3454  0.128851  0.599257
   0.526868  0.944253  0.82791
   0.104242  0.413984  0.153886
   0.07302736  0.412679  0.600816
   0.55343  0.577132  0.573776
   1.01234  0.705611  0.440315
   0.880666  0.950986  0.547946
  -0.495292 -0.363465  0.934389
unknown system
           1
     4.286445   -0.734858    0.180317
     0.017782    4.752589    0.184929
     0.020044   -0.006560    4.921779
   S    H
   8  24
Direct configuration=   280
   0.741184  0.195499  0.648734
   0.27685  0.126777  0.218592
   0.207085  0.840936  0.582531
   0.827971  0.962777  0.195096
   0.788025  0.62669  0.77292
   0.266935  0.413247  0.798104
   0.287678  0.772091  0.03060750
   0.749217  0.44009  0.244739
   0.581338  0.762061  0.147147
  -0.08084601  0.328015  0.00546447
  -0.152859 -0.08516404 -0.117426
   0.640293  1.19124  0.04258536
   0.509292  0.09328665  0.425821
   1.01413  0.798087  0.279481
   0.200865  0.01417914 -0.1267
   1.4952 -0.362542  0.500824
  -0.636663  0.388572  0.518198
   0.230716 -0.525791  1.34077
   0.999653  0.09428224 -0.27787
   0.515739  1.22906 -0.06941103
   0.494289  0.794042  1.42839
   0.413895  0.48685  1.19868
   0.664634  0.872657  0.6154
  -0.03456452  0.214717  0.387102
   0.335517  0.182856  0.622968
   0.497624  1.02685  0.814507
   0.09109141  0.41266  0.220096
   0.112874  0.40958  0.576247
   0.579708  0.484764  0.596431
   1.03856  0.564878  0.463878
   0.820044  0.960537  0.495401
  -0.389655 -0.465017  0.995599
unknown system
           1
     4.279185   -0.748727    0.182521
     0.017763    4.743231    0.188668
     0.020022   -0.006553    4.916542
   S    H
   8  24
Direct configuration=   290
   0.756417  0.168564  0.651535
   0.303277  0.116439  0.205506
   0.186613  0.829156  0.572665
   0.807024  0.955159  0.16715
   0.771206  0.63741  0.769653
   0.236155  0.419778  0.817206
   0.322603  0.780214  0.02101744
   0.712882  0.440928  0.259277
   0.627101  0.711131  0.121222
  -0.06754888  0.249547  0.04878967
  -0.01076222 -0.111579 -0.03980973
   0.778184  1.18928 -0.09074108
   0.62207  0.112611  0.390251
   1.10596  0.757099  0.267302
   0.179589 -0.00185404 -0.09558955
   1.47669 -0.368555  0.453984
  -0.691795  0.340164  0.358556
   0.199303 -0.454548  1.33307
   0.960899  0.07542837 -0.221353
   0.441065  1.26985 -0.118825
   0.532539  0.84125  1.42248
   0.421118  0.601492  1.21887
   0.541241  0.786203  0.685376
   0.05472895  0.133042  0.411411
   0.331924  0.120085  0.64202
   0.567431  0.927374  0.857597
   0.02206330  0.454839  0.07970624
   0.01440706  0.345945  0.493848
   0.627328  0.44508  0.506711
   0.948076  0.566266  0.401416
   0.918278  0.882596  0.491045
  -0.425334 -0.565573  0.962151
unknown system
           1
     4.273655   -0.761709    0.184073
     0.017759    4.736261    0.193677
     0.020006   -0.006547    4.912442
   S    H
   8  24
Direct configuration=   300
   0.751572  0.141516  0.658555
   0.348489  0.123194  0.204516
   0.170486  0.821334  0.57233
   0.793188  0.95438  0.150068
   0.766598  0.643742  0.766807
   0.18952  0.423488  0.821087
   0.342948  0.768865  0.01214264
   0.688314  0.440068  0.264566
   0.74481  0.645799  0.06211287
   0.122351  0.25775  0.09130079
   0.01141268 -0.244 -0.03637098
   0.732468  1.27019  0.04353697
   0.580353  0.03183047  0.39773
   1.03174  0.707456  0.18413
   0.234961  0.12172 -0.135435
   1.42243 -0.321177  0.419687
  -0.718401  0.341331  0.377077
   0.144299 -0.421925  1.44518
   1.11701  0.00300481 -0.204428
   0.485516  1.10861 -0.197268
   0.609469  0.730487  1.40578
   0.326216  0.525398  1.20677
   0.427816  0.765741  0.695886
   0.04674662  0.137542  0.570164
   0.381785  0.170494  0.534399
   0.69898  0.974131  0.892239
  -0.07280761  0.496022  0.01854313
  -0.06503885  0.317169  0.339328
   0.366762  0.361241  0.635864
   0.84138  0.58798  0.505459
   0.888487  0.837318  0.379228
  -0.381688 -0.649071  0.906848
unknown system
           1
     4.269214   -0.775457    0.185342
     0.017774    4.732598    0.200488
     0.020002   -0.006546    4.911618
   S    H
   8  24
Direct configuration=   310
   0.750017  0.13609  0.654624
   0.38355  0.114985  0.205781
   0.168106  0.826225  0.557775
   0.800716  0.970821  0.139119
   0.738803  0.638559  0.75844
   0.137829  0.421157  0.821985
   0.346291  0.751496  0.01062195
   0.679381  0.440089  0.279355
   0.554591  0.611296  0.146334
   0.157178  0.354761  0.200894
   0.01576388 -0.109326  0.00262903
   0.741784  1.26769 -0.04671627
   0.55391 -0.05302570  0.479858
   0.993513  0.524671  0.238008
   0.346833  0.207158 -0.118313
   1.38619 -0.302652  0.368435
  -0.825197  0.365659  0.432124
   0.07253126 -0.53234  1.45106
   1.12099 -0.00706134 -0.174308
   0.35588  1.00462 -0.1784
   0.602666  0.736129  1.39504
   0.272947  0.518635  1.22864
   0.583111  0.761445  0.617703
   0.05152482  0.112861  0.514386
   0.376298  0.135718  0.556628
   0.775371  0.927393  0.838738
  -0.00570748  0.192148  0.08274504
  -0.07649869  0.151893  0.341274
   0.426603  0.388488  0.564746
   0.732286  0.446525  0.557496
   0.93383  0.870407  0.347426
  -0.413651 -0.620745  0.84269
unknown system
           1
     4.265915   -0.790145    0.188091
     0.017806    4.734198    0.207036
     0.020012   -0.006549    4.914100
   S    H
   8  24
Direct configuration=   320
   0.739617  0.131379  0.649559
   0.406023  0.09607836  0.198927
   0.165315  0.815522  0.54154
   0.790102  0.9823  0.139145
   0.715389  0.631269  0.773231
   0.09068735  0.425997  0.818801
   0.324372  0.741641  0.00460249
   0.691124  0.442926  0.292305
   0.581413  0.53716  0.01939727
   0.178475  0.340287  0.234376
  -0.00378900 -0.246082  0.01981543
   0.734807  1.26348 -0.05816048
   0.575006 -0.02111522  0.425753
   1.01081  0.473377  0.126155
   0.485833  0.217513 -0.05060572
   1.29583 -0.310675  0.320197
  -0.763528  0.322395  0.461847
  -0.07197995 -0.358859  1.47948
   1.08615  0.147231 -0.24516
   0.355164  0.965452 -0.193982
   0.643655  0.745292  1.31365
   0.19098  0.491192  1.28069
   0.476498  0.688868  0.548317
   0.200814  0.122308  0.526417
   0.408236  0.198493  0.70697
   0.943997  0.939906  0.825097
   0.188516  0.242458  0.01187779
  -0.109308  0.150201  0.340246
   0.407213  0.454462  0.543688
   0.813438  0.457516  0.583948
   1.01031  0.737456  0.288113
  -0.606943 -0.60526  0.895842
unknown system
           1
     4.264522   -0.803310    0.191824
     0.017861    4.740334    0.215246
     0.020033   -0.006556    4.919100
   S    H
   8  24
Direct configuration=   330
   0.726235  0.102025  0.643009
   0.398513  0.08224749  0.201206
   0.159879  0.808523  0.535568
   0.806246  0.980613  0.126495
   0.690547  0.656595  0.783554
   0.05014555  0.441866  0.80759
   0.300176  0.733834 -0.00888147
   0.694692  0.444203  0.301511
   0.582224  0.344585 -0.00260249
   0.09895939  0.199401  0.319229
  -0.264796 -0.325784  0.05943821
   0.885017  1.22157 -0.03323263
   0.476892 -0.06691566  0.457624
   0.898333  0.383513  0.11328
   0.612383  0.228007 -0.09270475
   1.35432 -0.450342  0.232262
  -0.771923  0.340582  0.54652
  -0.136553 -0.130261  1.37415
   1.09765  0.06966167 -0.28876
[...]
   0.474074  0.389388  0.622811
  -0.164721  0.66103  0.598723
  -0.667436  0.813008  0.628261
   0.608017  1.26252  0.08587056
   0.128753  1.06268  1.03574
  -0.03225106  0.644267  1.20057
   0.06609110  1.06594  0.470244
   0.500528  0.914085  0.3124
   0.03302300  0.704716 -0.06794744
   2.01746  1.43041 -1.49894
  -0.392925 -0.02176930  0.772489
   0.369224  0.77929 -0.08649132
   0.812335 -1.06598  1.77134
  -0.206453  0.322348  0.845758
  -0.111867  0.191656 -0.338693
   0.879634 -0.74563  1.36447
  -0.54221  1.61791  0.340711
  -1.53745  0.129824  1.72683
  -0.01426449 -1.66558 -0.854277
   0.151926  0.453393  0.01140283
   1.2116  0.437984  2.27962
   0.71152 -1.17235  1.00179
   1.28057  1.29424 -0.697159
   0.133628  0.481809  2.67661
  -1.33605  0.425555  2.33284
   1.70091  0.00339317  1.04085
   2.40659  1.4667  0.07434412
  -0.634407 -0.380553  1.92431
   0.111064  1.2152  0.781283
  -0.35869  0.593262  1.00556
   2.59449  1.13411 -0.497542
  -1.04758 -1.51182  2.88924
unknown system
           1
     3.899284   -0.702609   -0.737371
     0.015253    5.230240   -0.855027
     0.020058   -0.006564    4.925378
   S    H
   8  24
Direct configuration=  2100
   0.451944  0.383925  0.630479
  -0.155522  0.669436  0.597398
  -0.660962  0.8056  0.637099
   0.622622  1.2694  0.08779497
   0.14052  1.06162  1.03855
  -0.01061554  0.663554  1.21784
   0.05505297  1.07238  0.470649
   0.496351  0.916274  0.2941
   0.00107900  0.698467 -0.101933
   1.98784  1.44162 -1.45487
  -0.344795  0.09913344  0.832564
   0.332443  0.795114 -0.01154115
   0.889351 -1.08129  1.73855
  -0.169451  0.311045  0.755233
  -0.171009  0.09448343 -0.249818
   0.869144 -0.690764  1.40778
  -0.560188  1.62499  0.213868
  -1.56696  0.163595  1.77923
  -0.01958973 -1.70105 -0.949528
   0.142923  0.447135  0.00450167
   1.34984  0.580218  2.41175
   0.717457 -1.20569  0.918716
   1.24941  1.29522 -0.726638
   0.176831  0.394466  2.82355
  -1.38531  0.407416  2.3361
   1.7004 -0.07955775  1.05066
   2.39869  1.46009  0.02619480
  -0.540642 -0.360759  1.91377
   0.194585  1.20935  0.824969
  -0.354751  0.656479  1.07926
   2.65114  1.18593 -0.474736
  -1.08771 -1.53292  2.83057
unknown system
           1
     3.910680   -0.722823   -0.735557
     0.015385    5.233081   -0.825112
     0.020046   -0.006560    4.922397
   S    H
   8  24
Direct configuration=  2110
   0.431609  0.3853  0.632114
  -0.144624  0.67436  0.598972
  -0.632977  0.805256  0.661004
   0.649087  1.27921  0.104533
   0.144083  1.06386  1.05546
   0.00535510  0.681878  1.22616
   0.02978749  1.07717  0.463376
   0.503259  0.917065  0.284034
  -0.02308545  0.692956 -0.09257310
   2.03799  1.4541 -1.41877
  -0.361585  0.03617647  0.845095
   0.281244  0.721943 -0.08202361
   0.948426 -1.04956  1.67093
  -0.08420066  0.290363  0.748074
  -0.21071  0.09097197 -0.212644
   0.949719 -0.681846  1.36242
  -0.480544  1.61545  0.283799
  -1.61981  0.04621087  1.78389
  -0.05238937 -1.71953 -0.980598
   0.157055  0.502441  0.07006094
   1.33815  0.577414  2.39154
   0.677738 -1.17352  0.830718
   1.19  1.36633 -0.735064
   0.239058  0.450904  2.95013
  -1.59616  0.397606  2.32672
   1.73017 -0.08428196  1.07518
   2.48116  1.51347  0.05591806
  -0.493081 -0.394448  1.8732
   0.06504972  1.20189  0.740511
  -0.330142  0.636396  1.02343
   2.59514  1.18925 -0.496857
  -1.1711 -1.60703  2.82094
unknown system
           1
     3.921644   -0.744831   -0.731927
     0.015511    5.234509   -0.795413
     0.020028   -0.006554    4.917905
   S    H
   8  24
Direct configuration=  2120
   0.426541  0.377564  0.628188
  -0.138859  0.667105  0.603209
  -0.604556  0.810919  0.683135
   0.659489  1.29407  0.127456
   0.152462  1.06909  1.06635
   0.01350351  0.707877  1.23915
   0.01073070  1.08376  0.445185
   0.517121  0.918524  0.27964
  -0.05022724  0.631841 -0.104631
   2.05017  1.44761 -1.42723
  -0.314591  0.142934  0.876621
   0.289374  0.701246 -0.101534
   0.852181 -1.02455  1.71794
  -0.05711838  0.388201  0.736326
  -0.296939  0.138981 -0.32632
   0.924568 -0.680407  1.40262
  -0.404175  1.61618  0.372691
  -1.74033  0.05017602  1.78339
   0.04114163 -1.65095 -0.998407
   0.250864  0.50507  0.09131103
   1.26711  0.581526  2.4131
   0.793794 -1.11084  0.944014
   1.10287  1.3776 -0.756888
   0.224278  0.429772  2.85658
  -1.6143  0.30757  2.30819
   1.67803 -0.06244573  1.06439
   2.48026  1.58329  0.188163
  -0.468881 -0.429351  1.92714
   0.208888  1.22775  0.876953
  -0.266243  0.690642  1.00512
   2.56321  1.1505 -0.498726
  -1.28661 -1.60136  2.85804
unknown system
           1
     3.930680   -0.768793   -0.726343
     0.015623    5.233751   -0.767306
     0.020003   -0.006546    4.911881
   S    H
   8  24
Direct configuration=  2130
   0.431281  0.372477  0.621391
  -0.124711  0.661567  0.617094
  -0.571386  0.826755  0.711632
   0.664498  1.3096  0.14144
   0.138044  1.07821  1.06198
   0.03374303  0.731153  1.24484
   0.00191614  1.08065  0.439905
   0.531871  0.911765  0.278169
   0.01757392  0.669864 -0.03787020
   2.0346  1.48274 -1.38427
  -0.243459  0.168994  0.857882
   0.290846  0.712172 -0.05663885
   0.757202 -1.00095  1.7134
  -0.119112  0.357517  0.798383
  -0.151781  0.189564 -0.337482
   0.773862 -0.679204  1.454
  -0.503385  1.59931  0.4058
  -1.74836  0.03360620  1.66491
   0.09209082 -1.61925 -1.02929
   0.298263  0.505201 -0.00033767
   1.22987  0.525358  2.45352
   0.90502 -1.1111  0.896066
   1.11905  1.44433 -0.775735
   0.202068  0.460953  2.80994
  -1.60325  0.345514  2.29468
   1.58522 -0.05346986  0.963245
   2.44027  1.60571  0.244262
  -0.412755 -0.42901  2.04742
   0.430735  1.26004  0.893015
  -0.330231  0.702842  0.957004
   2.45251  1.1049 -0.551095
  -1.22994 -1.53051  2.92952
unknown system
           1
     3.937986   -0.792969   -0.719660
     0.015731    5.231464   -0.738934
     0.019971   -0.006536    4.904007
   S    H
   8  24
Direct configuration=  2140
   0.448923  0.373977  0.624772
  -0.115248  0.660924  0.626012
  -0.545678  0.852073  0.742241
   0.690096  1.32401  0.156956
   0.116461  1.0949  1.0453
   0.05406771  0.74183  1.25978
  -0.00499991  1.08726  0.447977
   0.543939  0.90221  0.268676
  -0.00172386  0.667136 -0.06290914
   2.00427  1.41232 -1.40731
  -0.176692  0.123783  0.921224
   0.30438  0.729423 -0.06696800
   0.746625 -0.974145  1.66514
  -0.14353  0.336377  0.852806
  -0.00223172  0.282037 -0.270761
   0.66015 -0.702372  1.45197
  -0.433833  1.69562  0.432172
  -1.73191  0.03212032  1.71031
   0.239524 -1.67274 -1.02689
   0.317918  0.545197  0.02848006
   1.13029  0.515313  2.42543
   0.988846 -1.08976  0.793207
   1.07111  1.43485 -0.783181
   0.286618  0.48435  2.83358
  -1.72303  0.33917  2.28167
   1.65043  0.00622101  1.06905
   2.4258  1.52795  0.219928
  -0.345063 -0.35639  2.08551
   0.489407  1.17953  0.78886
  -0.393838  0.67205  0.891195
   2.44492  1.10886 -0.555841
  -1.17374 -1.51581  2.92333
unknown system
           1
     3.943914   -0.816892   -0.713224
     0.015836    5.227557   -0.709736
     0.019937   -0.006524    4.895457
   S    H
   8  24
Direct configuration=  2150
   0.468239  0.38086  0.630016
  -0.09515818  0.660009  0.62915
  -0.530668  0.870821  0.757569
   0.705883  1.34806  0.172113
   0.117649  1.10581  1.03227
   0.07568184  0.745237  1.26896
   0.00537539  1.09977  0.470614
   0.537506  0.884675  0.253167
   0.02834954  0.673831 -0.02484383
   1.98842  1.40997 -1.45524
  -0.265375  0.08032062  0.847742
   0.269642  0.761786 -0.02832568
   0.715973 -0.945967  1.61741
  -0.127794  0.319999  0.860376
   0.07115742  0.313427 -0.216094
   0.662165 -0.735418  1.43698
  -0.405464  1.68302  0.43113
  -1.74512  0.06968890  1.75326
   0.35355 -1.70328 -1.11545
   0.249643  0.532539  0.09533595
   1.28148  0.577349  2.46187
   0.930572 -1.07474  0.727922
   1.05325  1.36686 -0.786449
   0.348855  0.543336  2.97581
  -1.72472  0.350492  2.3226
   1.68685 -0.03140816  1.02016
   2.44988  1.44916  0.237551
  -0.31705 -0.289082  2.08692
   0.583005  1.19594  0.767348
  -0.351408  0.616555  0.923145
   2.42739  1.06998 -0.575629
  -1.20988 -1.52265  2.91439
unknown system
           1
     3.949410   -0.840024   -0.706865
     0.015934    5.221807   -0.680582
     0.019900   -0.006512    4.886468
   S    H
   8  24
Direct configuration=  2160
   0.481445  0.392672  0.637846
  -0.06501359  0.663748  0.630913
  -0.539692  0.870519  0.744987
   0.71035  1.36924  0.180451
   0.124012  1.11273  1.02899
   0.08622566  0.734524  1.27838
   0.02118498  1.11396  0.490403
   0.536031  0.878134  0.252671
  -0.06029349  0.693874 -0.08703522
   2.04541  1.44568 -1.44556
  -0.151551  0.152091  0.878627
   0.274293  0.760867 -0.07144104
   0.742616 -0.908564  1.61785
   0.01216247  0.380547  0.836266
   0.223074  0.450227 -0.230483
   0.668603 -0.752324  1.46172
  -0.329827  1.6799  0.407867
  -1.69805  0.08568902  1.72212
   0.425938 -1.72435 -1.00791
   0.171836  0.435479  0.05858502
   1.39632  0.66543  2.49553
   0.918002 -1.06896  0.767444
   1.07802  1.3997 -0.704529
   0.323517  0.558536  3.02683
  -1.68416  0.296556  2.3185
   1.80842 -0.02110758  1.07818
   2.47282  1.54181  0.222071
  -0.289665 -0.338783  2.08073
   0.691356  1.2561  0.793151
  -0.438459  0.633432  0.878692
   2.38725  1.06329 -0.57521
  -1.16894 -1.54568  2.95206
unknown system
           1
     3.954783   -0.861260   -0.699503
     0.016021    5.213979   -0.652261
     0.019862   -0.006500    4.877141
   S    H
   8  24
Direct configuration=  2170
   0.501995  0.404937  0.640086
  -0.04127971  0.669475  0.639594
  -0.533314  0.880249  0.735415
   0.713739  1.38299  0.194212
   0.127347  1.11006  1.04141
   0.08782543  0.72391  1.28137
   0.02506051  1.12598  0.498744
   0.551867  0.886449  0.249598
  -0.07130720  0.711846 -0.02935855
   2.02455  1.39128 -1.49105
  -0.150526  0.179919  0.90308
   0.24261  0.726576 -0.00671493
   0.718796 -0.953439  1.65233
   0.02125678  0.408603  0.749412
   0.316046  0.570851 -0.139134
   0.718519 -0.726833  1.44885
  -0.316977  1.77196  0.470217
  -1.69835  0.08284169  1.72829
   0.43396 -1.73496 -1.0952
   0.154021  0.365541  0.04454627
   1.39926  0.609579  2.52734
   0.990713 -1.06883  0.774321
   1.21087  1.47219 -0.663091
   0.31584  0.568681  3.0282
  -1.65182  0.295755  2.2743
   1.79036 -0.00273603  1.10596
   2.4439  1.49561  0.249018
  -0.31161 -0.289289  2.08719
   0.681752  1.27334  0.809046
  -0.363792  0.684479  0.875585
   2.46106  1.09096 -0.596027
  -1.01632 -1.54458  2.9179
unknown system
           1
     3.959818   -0.880734   -0.691359
     0.016099    5.204655   -0.625094
     0.019823   -0.006487    4.867641
   S    H
   8  24
Direct configuration=  2180
   0.516915  0.40573  0.648457
  -0.02335792  0.670845  0.652286
  -0.512718  0.899892  0.739533
   0.724512  1.39173  0.192572
   0.133839  1.10163  1.06378
   0.09224225  0.725345  1.28006
   0.03708249  1.12533  0.50298
   0.567771  0.90333  0.247016
   0.01033075  0.723419 -0.01510381
   2.05451  1.44935 -1.52036
  -0.244549  0.134387  0.912281
   0.286829  0.769398 -0.05385290
   0.773641 -0.93372  1.64421
   0.01014359  0.259907  0.752508
   0.406577  0.547274 -0.122701
   0.682348 -0.7535  1.52043
  -0.310512  1.76822  0.503556
  -1.68648  0.118296  1.74633
   0.371161 -1.73057 -1.03958
   0.113013  0.409405  0.06987546
   1.40858  0.612495  2.52617
   1.01673 -1.03662  0.778647
   1.22833  1.50839 -0.745547
   0.385208  0.500691  3.02596
  -1.68242  0.24508  2.34463
   1.71388  0.03894754  1.06813
   2.55516  1.5495  0.305337
  -0.316007 -0.339022  2.08308
   0.740228  1.31382  0.846368
  -0.240245  0.736441  0.896589
   2.46585  1.0836 -0.601915
  -0.980661 -1.55569  2.87955
unknown system
           1
     3.963937   -0.897206   -0.682795
     0.016170    5.193420   -0.597625
     0.019790   -0.006477    4.859548
   S    H
   8  24
Direct configuration=  2190
   0.534279  0.409609  0.660024
  -0.00584805  0.660301  0.667844
  -0.49725  0.908097  0.74391
   0.735997  1.39774  0.185315
   0.130896  1.08904  1.08732
   0.108888  0.746847  1.28681
   0.04621759  1.12217  0.497066
   0.578795  0.911942  0.244472
   0.07815483  0.672799 -0.00512911
   2.05846  1.39053 -1.48098
  -0.251457  0.188864  0.8848
   0.407836  0.743265 -0.00733279
   0.750805 -0.948292  1.63003
   0.05216755  0.266656  0.826248
   0.409596  0.573124 -0.14244
   0.755124 -0.734672  1.51774
  -0.291217  1.76926  0.431646
  -1.59229  0.168498  1.78292
   0.424113 -1.72862 -0.997801
   0.106526  0.402977 -0.00062198
   1.3859  0.625059  2.52072
   1.02807 -1.07146  0.821682
   1.29833  1.45268 -0.757475
   0.370869  0.502214  3.10271
  -1.61651  0.327185  2.31904
   1.64833  0.142002  1.07224
   2.60662  1.57204  0.380997
  -0.30952 -0.339307  2.02378
   0.808624  1.44612  0.939999
  -0.210071  0.840893  0.916767
   2.43826  1.05384 -0.529525
  -0.880413 -1.5186  2.83726
unknown system
           1
     3.966501   -0.909795   -0.673639
     0.016238    5.181030   -0.570057
     0.019762   -0.006467    4.852683
   S    H
   8  24
Direct configuration=  2200
   0.547844  0.411604  0.661486
   0.00073435  0.651037  0.676156
  -0.488254  0.912787  0.740502
   0.763657  1.41691  0.189384
   0.124742  1.07782  1.10677
   0.122976  0.770345  1.29023
   0.05619514  1.11943  0.495079
   0.598208  0.926837  0.245786
   0.08472281  0.6898 -0.00971413
   2.09167  1.42467 -1.5123
  -0.146786  0.250002  0.862409
   0.417433  0.652494  0.06184143
   0.854916 -0.975985  1.73782
   0.01214848  0.262399  0.762347
   0.479886  0.608026 -0.125729
   0.713355 -0.729957  1.47923
  -0.305233  1.77102  0.479687
  -1.61269  0.179511  1.81518
   0.41875 -1.67836 -1.00497
   0.179572  0.378662 -0.00124024
   1.38531  0.64222  2.46324
   1.15609 -1.02409  0.8185
   1.11295  1.42059 -0.693818
   0.288658  0.502985  3.14919
  -1.60642  0.293936  2.29932
   1.62599  0.08478320  1.04002
   2.63159  1.59305  0.369251
  -0.237789 -0.257369  2.10253
   0.895298  1.51308  0.931235
  -0.218912  0.861493  0.944244
   2.53554  1.09275 -0.56441
  -0.796431 -1.601  2.73491
unknown system
           1
     3.968010   -0.918833   -0.665285
     0.016310    5.168380   -0.541421
     0.019736   -0.006459    4.846217
   S    H
   8  24
Direct configuration=  2210
   0.556598  0.412582  0.661154
   0.00553853  0.654874  0.683663
  -0.488259  0.911075  0.728456
   0.785884  1.4298  0.187388
   0.124038  1.07719  1.10968
   0.153615  0.781655  1.29955
   0.07170403  1.1196  0.51034
   0.618792  0.943778  0.252978
   0.160205  0.697381 -0.01433503
   2.21826  1.52044 -1.4249
  -0.198865  0.207578  0.875037
   0.458076  0.629651  0.02773704
   0.885889 -1.01489  1.75923
  -0.07942334  0.281176  0.754765
   0.596379  0.632887 -0.115077
   0.851962 -0.70867  1.415
  -0.341178  1.77652  0.520912
  -1.5271  0.185699  1.84535
   0.483046 -1.66737 -0.988956
   0.220146  0.424419 -0.04430396
   1.38696  0.558007  2.40094
   1.18566 -0.973336  0.845983
   1.14609  1.36962 -0.675772
   0.245334  0.463758  3.15175
  -1.56528  0.276486  2.27635
   1.67739  0.128842  1.02786
   2.57018  1.61666  0.273703
  -0.206337 -0.267305  2.04928
   0.919917  1.47656  0.941277
  -0.140139  0.780577  0.885816
   2.49452  1.15345 -0.483101
  -0.74689 -1.60565  2.8099
unknown system
           1
     3.969066   -0.925579   -0.657347
     0.016388    5.156039   -0.511359
     0.019710   -0.006450    4.839866
   S    H
   8  24
Direct configuration=  2220
   0.557186  0.407902  0.651444
   0.01032845  0.660982  0.683719
  -0.489649  0.906443  0.721556
   0.79991  1.43938  0.188393
   0.12354  1.09047  1.09647
   0.18113  0.770952  1.3124
   0.07846786  1.12181  0.541251
   0.634226  0.954436  0.255932
   0.261237  0.7577  0.03305581
   2.26919  1.53116 -1.35837
  -0.128221  0.127029  0.894062
   0.470809  0.674322  0.00279540
   0.865631 -1.07  1.64287
  -0.122759  0.277361  0.72945
   0.547794  0.571028 -0.118401
   0.906026 -0.649079  1.48459
  -0.374717  1.71235  0.52394
  -1.46338  0.215539  1.87419
   0.411528 -1.67391 -0.977213
   0.223183  0.432835 -0.02787740
   1.45041  0.495369  2.36795
   1.25381 -0.942726  0.835686
   1.21788  1.41902 -0.64099
   0.22719  0.434822  3.1683
  -1.49865  0.26151  2.27023
   1.70288  0.143099  1.08449
   2.64643  1.65098  0.280541
  -0.175828 -0.267793  2.08341
   0.973535  1.46688  0.917774
  -0.158927  0.847725  0.918177
   2.59957  1.072 -0.485495
  -0.84973 -1.72889  2.78922
unknown system
           1
     3.970511   -0.930854   -0.649126
     0.016467    5.143756   -0.481228
     0.019685   -0.006442    4.833720
   S    H
   8  24
Direct configuration=  2230
   0.560141  0.398963  0.640317
   0.02360959  0.670937  0.696652
  -0.494728  0.901107  0.724336
   0.815026  1.44345  0.178643
   0.125917  1.10032  1.08479
   0.196511  0.75816  1.32287
   0.09688284  1.13316  0.562652
   0.645995  0.950912  0.250384
   0.07852741  0.757543 -0.04152060
   2.25078  1.48742 -1.32608
  -0.183604  0.143491  0.872922
   0.417845  0.721177  0.04428206
   0.867668 -1.13359  1.59569
  -0.188246  0.254787  0.761057
   0.583897  0.552558 -0.06084381
   0.957208 -0.662751  1.43161
  -0.487265  1.68954  0.519776
  -1.4341  0.248487  1.89694
   0.414522 -1.59699 -0.935454
   0.27936  0.551557 -0.06456199
   1.5149  0.519735  2.32692
   1.34758 -0.99142  0.94234
   1.22562  1.42287 -0.611455
   0.304112  0.446297  3.24331
  -1.55747  0.198518  2.32551
   1.62833  0.142021  1.0686
   2.75725  1.73928  0.384576
  -0.190101 -0.289552  2.02543
   1.00161  1.46233  0.978775
  -0.228575  0.842576  0.921806
   2.61646  1.12354 -0.443522
  -0.859407 -1.70204  2.83495
unknown system
           1
     3.973075   -0.934731   -0.639302
     0.016548    5.131383   -0.450415
     0.019664   -0.006435    4.828478
   S    H
   8  24
Direct configuration=  2240
   0.574592  0.399025  0.631088
   0.03218615  0.669818  0.702845
  -0.507223  0.893822  0.731552
   0.825144  1.4431  0.170666
   0.120031  1.10881  1.08299
   0.203994  0.755666  1.32971
   0.116784  1.14438  0.581958
   0.666976  0.943171  0.246008
  -0.00823914  0.766162  0.04203260
   2.21788  1.50068 -1.29716
  -0.193243  0.09912864  0.900784
   0.300994  0.777588  0.05640985
   0.881881 -1.03547  1.70172
  -0.08372172  0.307056  0.752009
   0.570061  0.57697 -0.133537
   0.820634 -0.740998  1.36548
  -0.521384  1.61132  0.503548
  -1.55621  0.248312  1.86918
   0.378874 -1.54453 -0.931721
   0.441797  0.602356  0.01205622
   1.68304  0.593347  2.36793
   1.32775 -1.02559  0.959514
   1.20764  1.3645 -0.612079
   0.28784  0.419245  3.23848
  -1.63688  0.10973  2.29866
   1.59772  0.212733  1.05936
   2.76099  1.77493  0.446454
  -0.277731 -0.312261  2.08512
   1.03177  1.41946  0.937063
  -0.256564  0.819721  0.926344
   2.62917  1.11551 -0.499975
  -0.75403 -1.67595  2.91841
unknown system
           1
     3.977122   -0.935449   -0.628179
     0.016637    5.119580   -0.418340
     0.019648   -0.006430    4.824648
   S    H
   8  24
Direct configuration=  2250
   0.603101  0.390731  0.613527
   0.02289713  0.660585  0.699944
  -0.50607  0.901334  0.733826
   0.826083  1.44196  0.157276
   0.09431838  1.11555  1.08974
   0.204282  0.74892  1.32937
   0.122119  1.14525  0.59018
   0.695566  0.937699  0.245739
  -0.02927002  0.792047  0.00620737
   2.20189  1.43827 -1.30763
  -0.187006  0.156014  0.91678
   0.223483  0.67596 -0.02191018
   0.89268 -1.02627  1.73719
  -0.125806  0.230695  0.67566
   0.54152  0.636412 -0.20964
   0.770885 -0.69533  1.38779
  -0.596357  1.59791  0.421209
  -1.4114  0.220598  1.7981
   0.337601 -1.47497 -0.884581
   0.449141  0.635273 -0.05496824
   1.69752  0.594733  2.37575
   1.28203 -1.03637  0.938807
   1.11633  1.31775 -0.652958
   0.371126  0.424688  3.26556
  -1.57982  0.141121  2.28651
   1.51289  0.242907  1.04456
   2.73785  1.80682  0.560127
  -0.335047 -0.339153  2.16226
   0.947957  1.47694  0.90088
  -0.191164  0.770817  0.898762
   2.58895  1.08331 -0.497603
  -0.756141 -1.66356  2.96737