File: xrpostproc/powder_xrd_deep_screening/UH_50_extended_convex_hull_POSCARS.txt
EA1092  3.845  3.842  3.530 90.29 89.59 64.34 Sym.group:    2
1.0000
    3.772579    -0.158607    -0.726683
    1.704633     3.373486    -0.688369
    0.703041     0.327495     3.444153
   H
  16
Direct
    0.435282     0.333320     0.508501
    0.274345     0.412578     0.646305
    0.051820     0.138013     0.977386
    0.211245     0.056777     0.838021
    0.663089     0.019334     0.140948
    0.156116     0.514806     0.133396
    0.331347     0.950149     0.348572
    0.820361     0.451106     0.348471
    0.932991     0.830171     0.508323
    0.775966     0.913089     0.649848
    0.552511     0.633990     0.979014
    0.710299     0.559548     0.837673
    0.587976     0.186966     0.013684
    0.093905     0.693381     0.022545
    0.391232     0.779530     0.471065
    0.901483     0.278214     0.468509
EA596   4.700  5.174  5.354 90.00 90.00 90.00 Sym.group:   63
1.0000
    4.692375    -0.173134     0.211613
    0.181521     5.166903     0.202268
   -0.248443    -0.200471     5.344742
   U
   8
Direct
    0.752496     0.621264     0.145772
    0.252270     0.871038     0.847836
    0.252122     0.121215     0.347895
    0.752318     0.371099     0.645786
    0.252309     0.371071     0.847862
    0.752109     0.121241     0.145743
    0.752278     0.871129     0.645769
    0.252478     0.621195     0.347796
EA972   3.743  3.746  5.473 89.97 89.97 60.05 Sym.group:  194
1.0000
    3.667387    -0.713276     0.219140
    2.468586     2.807147    -0.235967
   -0.198495     0.635428     5.432221
   U   H
   2   14
Direct
    0.792462     0.860948     0.458712
    0.125327     0.195229     0.958698
    0.457939     0.529216     0.958157
    0.459681     0.527150     0.458168
    0.097517     0.708594     0.129235
    0.277286     0.345731     0.289742
    0.278047     0.346885     0.628597
    0.094829     0.710548     0.789443
    0.277803     0.889977     0.628970
    0.278352     0.889951     0.288963
    0.821957     0.346852     0.288855
    0.641507     0.710758     0.127590
    0.639460     0.166734     0.129266
    0.639630     0.166619     0.788164
    0.639505     0.709494     0.788876
    0.823340     0.345439     0.627750
EA5626  3.588  3.580  7.331 86.18 93.76 88.98 Sym.group:   15
1.0000
    3.583724    -0.145209    -0.093235
    0.209181     3.573999     0.020665
   -0.272000     0.462526     7.311697
   U   H
   4   10
Direct
    0.939038     0.484211     0.048078
    0.277878     0.951515     0.242191
    0.375547     0.049107     0.742745
    0.842171     0.386379     0.547481
    0.099683     0.877824     0.503744
    0.643881     0.543530     0.797306
    0.117962     0.558086     0.786639
    0.769484     0.205081     0.286461
    0.783914     0.685727     0.296685
    0.447005     0.230689     0.003721
    0.433080     0.749451     0.993634
    0.336448     0.445362     0.395277
    0.880274     0.991065     0.894788
    0.574422     0.891341     0.493198
EA8459  3.479  3.312  3.311 94.46 89.99 89.99 Sym.group:   63
1.0000
    3.456287    -0.015141    -0.400326
   -0.020691     3.297240    -0.306348
    0.381978     0.049388     3.288918
   U   H
   2    2
Direct
    0.379442     0.785014     0.104094
    0.879518     0.153415     0.736337
    0.879357     0.572238     0.322925
    0.379588     0.368436     0.519554
EA3754  5.211  4.790  3.512 90.00 89.91 89.97 Sym.group:   57
1.0000
    5.209340    -0.112504     0.096284
    0.107489     4.788694    -0.069793
   -0.058470     0.052382     3.510655
   U   H
   4    8
Direct
    0.264446     0.189328     0.254211
    0.736150     0.309815     0.752913
    0.735382     0.689294     0.252937
    0.264882     0.809901     0.754211
    0.339905     0.395824     0.754080
    0.947778     0.997901     0.503664
    0.660746     0.896105     0.753028
    0.052574     0.499162     0.003572
    0.947675     0.000233     0.003903
    0.339298     0.603235     0.254059
    0.052840     0.501355     0.503049
    0.660766     0.103314     0.252951
EA5967  3.475  3.316  3.310 94.53 90.00 89.94 Sym.group:   63
1.0000
    3.468983    -0.031094    -0.202034
    0.007357     3.286403    -0.442512
    0.193877     0.179854     3.299642
   U   H
   2    2
Direct
    0.374558     0.786711     0.104082
    0.873988     0.156031     0.738404
    0.875032     0.575612     0.327878
    0.373527     0.366911     0.514522
EA7197  3.464  4.828  5.719 114.88 72.56 89.97 Sym.group:   72
1.0000
    3.410553    -0.172144    -0.579658
   -0.513666     2.830746    -3.877680
    2.620740     2.462698     4.446419
   U   H
   4    6
Direct
    0.164663     0.704303     0.246650
    0.664863     0.083202     0.247084
    0.412411     0.833541     0.748704
    0.911914     0.455042     0.748865
    0.953375     0.001529     0.663123
    0.623965     0.536194     0.331701
    0.123445     0.336616     0.332558
    0.453067     0.201942     0.663929
    0.039092     0.268377     0.997933
    0.537810     0.268978     0.997744
EA2962  2.872  2.862  2.883 89.93 90.26 90.25 Sym.group:    1
1.0000
    2.853903    -0.139631     0.287713
    0.161451     2.836391    -0.347161
   -0.282186     0.367868     2.845641
   H
   8
Direct
    0.882002     0.585095     0.033173
    0.383119     0.726864     0.706415
    0.257143     0.576737     0.540739
    0.758186     0.716697     0.213121
    0.249918     0.079493     0.203079
    0.388924     0.223554     0.043710
    0.889848     0.087373     0.708827
    0.749395     0.216708     0.538129
EA3806  2.861  2.898  2.840 89.97 90.34 89.81 Sym.group:  205
1.0000
    2.811339    -0.176825     0.501145
    0.290451     2.824990    -0.576632
   -0.466207     0.607763     2.734399
   H
   8
Direct
    0.822762     0.597251     0.000040
    0.176323     0.606697     0.498898
    0.332201     0.746937     0.647343
    0.685175     0.755866     0.146558
    0.185830     0.099155     0.147471
    0.323469     0.254743     0.998459
    0.830259     0.105026     0.647891
    0.678215     0.248586     0.497794
EA3807  2.901  2.847  2.881 90.23 90.31 89.71 Sym.group:    1
1.0000
    2.894812    -0.157891     0.101619
    0.164306     2.838980     0.136699
   -0.124227    -0.142690     2.874458
   H
   8
Direct
    0.050305     0.863328     0.096156
    0.055039     0.234288     0.603375
    0.374451     0.729633     0.596353
    0.382471     0.361847     0.103013
    0.546434     0.222514     0.964810
    0.879083     0.720495     0.971447
    0.555507     0.854912     0.470191
    0.874778     0.349917     0.463949
EA3723  3.760  3.767  5.331 90.07 90.02 119.91 Sym.group:  187
1.0000
    3.744055     0.341462    -0.064541
   -2.165027     3.079834     0.118842
    0.102673    -0.141910     5.328032
   U   H
   2   13
Direct
    0.129462     0.475725     0.903810
    0.796040     0.809011     0.403705
    0.645567     0.507903     0.736550
    0.809705     0.315353     0.249080
    0.289731     0.796398     0.248568
    0.289746     0.315751     0.558177
    0.807764     0.315191     0.558655
    0.098161     0.961286     0.071049
    0.644027     0.504098     0.071684
    0.288561     0.315453     0.249298
    0.462865     0.142240     0.902382
    0.643037     0.961927     0.735828
    0.100062     0.960927     0.736920
    0.644804     0.961465     0.070970
    0.287908     0.792159     0.559336
EA2726  2.889  2.888  2.803 89.77 89.45 90.31 Sym.group:   61
1.0000
    2.848625    -0.175050     0.449040
    0.130619     2.878710     0.192458
   -0.418438    -0.154904     2.766796
   H
   8
Direct
    0.517096     0.401408     0.027568
    0.875920     0.901148     0.022972
    0.376075     0.907063     0.381721
    0.022795     0.403541     0.378190
    0.880544     0.558466     0.525273
    0.382458     0.558401     0.876403
    0.525401     0.056554     0.527041
    0.022242     0.062372     0.883395
EA3648  3.642  3.644  3.644 60.09 60.10 60.12 Sym.group:  225
1.0000
    1.858974    -3.130961     0.088733
    3.641936     0.046744    -0.121691
    1.928549    -0.884293     2.962741
   U   H
   1    8
Direct
    0.990852     0.790049     0.820092
    0.892542     0.156484     0.186496
    0.089309     0.423700     0.453472
    0.624586     0.888911     0.452590
    0.357078     0.155624     0.186594
    0.626251     0.422843     0.916582
    0.358063     0.691123     0.186448
    0.356699     0.156888     0.722356
    0.624017     0.423866     0.453144
EA4169  2.917  2.794  2.881 89.91 89.95 90.21 Sym.group:   61
1.0000
    2.897433    -0.071966     0.330637
    0.098553     2.770067    -0.353171
   -0.312228     0.377534     2.839438
   H
   8
Direct
    0.156212     0.784300     0.361564
    0.006146     0.608166     0.476265
    0.498752     0.778997     0.865758
    0.663331     0.613442     0.972305
    0.162339     0.276955     0.977165
    0.999794     0.115437     0.860667
    0.656681     0.105783     0.367230
    0.505720     0.286636     0.470826
EA4413  2.918  2.778  2.900 89.91 90.53 90.57 Sym.group:   61
1.0000
    2.917466    -0.009267     0.031445
   -0.017094     2.772900    -0.160575
   -0.057420     0.172047     2.894506
   H
   8
Direct
    0.499461     0.877591     0.169232
    0.873706     0.711196     0.667502
    0.371480     0.375830     0.526526
    0.871243     0.375234     0.169338
    0.375499     0.705157     0.020587
    0.003163     0.212126     0.023072
    0.007556     0.876762     0.522102
    0.508890     0.207772     0.665453
EA3204  2.781  2.896  2.917 89.98 90.09 90.01 Sym.group:   61
1.0000
    2.725972    -0.174722     0.521594
    0.174368     2.890215     0.054683
   -0.553767    -0.019836     2.864103
   H
   8
Direct
    0.376733     0.513592     0.923891
    0.879080     0.841776     0.918148
    0.537348     0.842148     0.421121
    0.874608     0.342904     0.526020
    0.039096     0.511184     0.421457
    0.537773     0.340088     0.025242
    0.376926     0.012195     0.528474
    0.035927     0.011900     0.030626
EA2177  5.102  5.099  5.132 119.65 60.28 89.95 Sym.group:  121
1.0000
    2.772233    -2.032974     3.770394
   -3.058689     2.195749     3.438567
    0.758493    -5.073533     0.150101
   U   H
   4   11
Direct
    0.240468     0.318825     0.076335
    0.679137     0.757750     0.076089
    0.420139     0.578249     0.717014
    0.858754     0.139223     0.717842
    0.310848     0.142632     0.577774
    0.106586     0.435388     0.579381
    0.563373     0.891521     0.578270
    0.855292     0.686756     0.577321
    0.788867     0.462007     0.215460
    0.992178     0.755113     0.215340
    0.243172     0.005553     0.215577
    0.535936     0.210143     0.216412
    0.275480     0.722296     0.444899
    0.823175     0.174940     0.348855
    0.050390     0.947838     0.896952
EA6416  3.479  3.343  6.552 94.49 90.00 90.00 Sym.group:   11
1.0000
    3.472751     0.200107    -0.029397
   -0.190052     3.329022     0.237970
    0.111039    -0.972087     6.478869
   U   H
   4    4
Direct
    0.962467     0.096630     0.378705
    0.462418     0.714461     0.556714
    0.462712     0.714262     0.056579
    0.962764     0.096509     0.878759
    0.962281     0.522731     0.676424
    0.462423     0.288067     0.258755
    0.462902     0.291395     0.760618
    0.962759     0.522978     0.176459
EA4313  2.846  2.914  6.037 103.79 103.56 90.23 Sym.group:    9
1.0000
    2.828009     0.094134     0.301287
   -0.148680     2.885293     0.383759
   -1.910038    -2.252808     5.265539
   H
  16
Direct
    0.123743     0.619623     0.828993
    0.838193     0.159541     0.913127
    0.093243     0.423319     0.412869
    0.594329     0.974368     0.412377
    0.177242     0.029125     0.574220
    0.679618     0.520224     0.575884
    0.421839     0.331454     0.077588
    0.921647     0.740097     0.075281
    0.370110     0.870485     0.325305
    0.869916     0.438354     0.325017
    0.343397     0.749058     0.910560
    0.625601     0.199625     0.825149
    0.794237     0.863893     0.162879
    0.291307     0.276772     0.160814
    0.038232     0.066953     0.664733
    0.534843     0.600421     0.662298
EA8326  3.478  2.052  3.265 89.44 90.17 88.89 Sym.group:    1
1.0000
    3.431051     0.470606     0.324640
   -0.237021     2.038074    -0.022770
   -0.321574     0.031185     3.249161
   H
   8
Direct
    0.245175     0.523308     0.918684
    0.242132     0.031813     0.422502
    0.749323     0.030943     0.932014
    0.743074     0.479711     0.430651
    0.407151     0.991961     0.563365
    0.081545     0.513958     0.061691
    0.905478     0.553513     0.566586
    0.576122     0.014669     0.060757
EA820   2.838  2.888  2.907 90.52 90.06 89.96 Sym.group:   14
1.0000
    2.747023     0.423835    -0.573124
   -0.559528     2.756910    -0.653053
    0.464484     0.724096     2.776432
   H
   8
Direct
    0.631523     0.549232     0.209644
    0.803741     0.901078     0.825602
    0.630325     0.052182     0.714048
    0.803267     0.403118     0.330071
    0.127781     0.905390     0.328606
    0.302185     0.548946     0.707399
    0.305393     0.046775     0.211629
    0.133352     0.404772     0.833299
EA7402  3.784  3.784  5.199 90.06 90.00 119.93 Sym.group:  194
1.0000
   -1.846829     3.282001    -0.373472
   -1.931518    -3.253056     0.096429
   -0.370988     0.379983     5.171527
   U   H
   2   12
Direct
    0.002999     0.625617     0.064706
    0.669395     0.958770     0.564750
    0.986970     0.117132     0.912360
    0.511238     0.116611     0.913301
    0.161115     0.467277     0.412660
    0.987280     0.118327     0.217266
    0.164491     0.948697     0.411623
    0.509806     0.639646     0.217135
    0.161114     0.466711     0.716674
    0.682067     0.465224     0.717679
    0.509111     0.637444     0.911386
    0.511437     0.118176     0.217157
    0.688560     0.467930     0.412792
    0.161436     0.942901     0.717231
EA9012  2.870  3.501  3.515 80.12 66.10 65.85 Sym.group:    1
1.0000
    2.404857     0.356600     1.525800
    0.830901     3.347128     0.602420
   -0.523717     0.135503     3.473389
   H
  10
Direct
    0.535004     0.334601     0.636438
    0.090093     0.913570     0.911409
    0.352725     0.237724     0.635063
    0.704509     0.703726     0.471089
    0.546538     0.453082     0.054658
    0.756270     0.541450     0.004713
    0.994233     0.678700     0.392481
    0.396043     0.061772     0.185963
    0.094574     0.133682     0.274672
    0.006959     0.874902     0.753794
EA8448  3.437  3.435  6.322 89.38 90.47 90.21 Sym.group:    2
1.0000
    3.417968     0.231615    -0.280238
   -0.254796     3.423440    -0.122706
    0.442480     0.327253     6.297988
   U   H
   4    4
Direct
    0.834019     0.935460     0.767063
    0.832127     0.937422     0.267083
    0.322887     0.450147     0.606320
    0.320945     0.452066     0.106379
    0.817580     0.430715     0.936988
    0.820878     0.433874     0.436986
    0.334286     0.953645     0.436344
    0.337263     0.956765     0.936370
EA389   2.981  3.639  6.020 90.03 90.02 65.88 Sym.group:   63
1.0000
    2.977999     0.111929     0.075293
    1.355646     3.367995     0.244415
   -0.139977    -0.382482     6.006369
   U   H
   2   10
Direct
    0.454963     0.630652     0.607284
    0.824339     0.885246     0.107403
    0.749729     0.041369     0.459917
    0.122766     0.289486     0.107424
    0.749253     0.041103     0.754612
    0.275252     0.985724     0.332870
    0.003914     0.531025     0.382142
    0.274701     0.984797     0.882044
    0.529499     0.474938     0.254021
    0.156721     0.226241     0.608764
    0.529636     0.474095     0.959781
    0.004386     0.531441     0.832537
EA2162  3.718  3.650  5.491 90.07 91.04 60.74 Sym.group:    1
1.0000
    1.953770     3.161970     0.081497
   -1.770834     3.191409     0.017262
   -0.188577    -0.142368     5.486129
   U   H
   2   13
Direct
    0.004588     0.213439     0.293509
    0.326413     0.551193     0.791400
    0.303668     0.063549     0.966082
    0.985712     0.725027     0.482444
    0.486684     0.246252     0.124941
    0.498696     0.246486     0.468345
    0.840375     0.064186     0.959814
    0.678213     0.878134     0.776417
    0.020719     0.705417     0.120623
    0.669158     0.881056     0.279172
    0.369111     0.029230     0.607563
    0.495789     0.686352     0.467052
    0.923504     0.266656     0.667606
    0.840556     0.525753     0.960972
    0.486239     0.698274     0.125842
EA9210  3.456  3.144 10.283 90.05 90.01 89.71 Sym.group:   11
1.0000
    3.455453    -0.020758     0.049196
    0.036305     3.142226    -0.105276
   -0.146260     0.337484    10.2766
   U   H
   6    6
Direct
    0.501230     0.417158     0.333589
    0.500819     0.416980     0.666820
    0.005907     0.095911     0.166559
    0.005709     0.095738     0.833260
    0.500780     0.417569     0.000210
    0.005966     0.095266     0.499900
    0.509642     0.762098     0.167188
    0.509408     0.762093     0.833603
    0.997709     0.751012     0.332848
    0.996974     0.750625     0.666484
    0.509762     0.761546     0.500501
    0.996921     0.751383     0.999716
EA2358  3.443  6.858  3.164 91.16 89.00 90.50 Sym.group:    1
1.0000
    3.435476     0.187892    -0.135077
   -0.439283     6.843049    -0.130808
    0.178944     0.007648     3.158991
   U   H
   4    4
Direct
    0.238855     0.472695     0.156586
    0.720213     0.733470     0.479242
    0.720196     0.233558     0.479318
    0.238923     0.972609     0.156512
    0.751427     0.990454     0.819051
    0.751237     0.490496     0.818970
    0.207828     0.715637     0.816783
    0.207734     0.215688     0.816947
EA9057  3.442  3.443  3.152 88.87 91.42 90.56 Sym.group:   12
1.0000
    3.440312    -0.116502     0.002863
    0.082063     3.406052    -0.495698
   -0.063488     0.516904     3.108883
   U   H
   2    2
Direct
    0.313752     0.870821     0.875561
    0.839085     0.350613     0.199255
    0.796883     0.837121     0.537104
    0.356215     0.384092     0.538153
EA1468  3.641  3.640  5.134 103.60 83.68 119.54 Sym.group:    2
1.0000
    3.624642    -0.310192    -0.138993
   -1.525237     3.302119    -0.139900
    0.692269    -0.798233     5.023764
   U   H
   2   10
Direct
    0.846409     0.475229     0.243772
    0.507122     0.987072     0.788882
    0.834299     0.029533     0.418693
    0.347375     0.024250     0.435177
    0.500655     0.772059     0.132035
    0.521039     0.433921     0.614353
    0.366660     0.562407     0.426383
    0.196778     0.117730     0.164379
    0.156536     0.344326     0.867734
    0.006576     0.437982     0.597470
    0.852182     0.688889     0.900415
    0.987122     0.900698     0.605834
EA36    3.436  3.564  3.430 61.57 74.10 82.37 Sym.group:    1
1.0000
    3.358556    -0.180973     0.704220
    0.424380     3.348005     1.146647
    0.283469     0.546671     3.374010
   H
  12
Direct
    0.214830     0.583342     0.230739
    0.922232     0.528096     0.717126
    0.311665     0.228256     0.950172
    0.756789     0.633701     0.604391
    0.418244     0.598465     0.080892
    0.369581     0.280836     0.707912
    0.294746     0.927169     0.602072
    0.919069     0.172602     0.372391
    0.832293     0.836613     0.967876
    0.739721     0.304255     0.318862
    0.828594     0.019223     0.011147
    0.378052     0.887143     0.403102
EA9277  3.444  6.826  3.190 92.52 89.82 90.22 Sym.group:    6
1.0000
    3.437992     0.033202    -0.200261
   -0.111177     6.816708    -0.333682
    0.195402     0.018834     3.183893
   U   H
   4    4
Direct
    0.307076     0.383017     0.937950
    0.804299     0.655678     0.261214
    0.802672     0.155545     0.261581
    0.308732     0.882820     0.937468
    0.299336     0.118326     0.585612
    0.301619     0.617720     0.584417
    0.809703     0.420563     0.614267
    0.812096     0.920280     0.613484
EA3928  4.696  3.452  4.621 90.05 84.85 89.87 Sym.group:    1
1.0000
    4.683149     0.238625     0.257569
   -0.154700     3.440446    -0.234829
    0.146336     0.317091     4.607631
   U   H
   4    4
Direct
    0.502205     0.610113     0.075800
    0.099318     0.112473     0.991758
    0.599532     0.112272     0.492945
    0.002373     0.610541     0.575273
    0.919100     0.613978     0.147925
    0.182944     0.109272     0.418342
    0.419111     0.613430     0.648620
    0.682456     0.108463     0.920905
EA1946  3.560  3.561  5.511 89.95 90.08 119.96 Sym.group:  186
1.0000
    3.519069     0.540222     0.014126
   -2.225634     2.779194    -0.064742
   -0.045042     0.098296     5.509925
   U   H
   2   10
Direct
    0.751051     0.433739     0.659128
    0.084085     0.100172     0.159177
    0.584930     0.599180     0.972978
    0.417746     0.767108     0.706267
    0.249869     0.935295     0.474304
    0.081108     0.598687     0.973826
    0.750263     0.432553     0.279335
    0.584835     0.102823     0.973366
    0.251025     0.433567     0.472612
    0.753079     0.935383     0.473660
    0.085141     0.100131     0.778750
    0.417332     0.766352     0.206991
EA8875  3.559  3.713  5.962 72.17 72.66 89.99 Sym.group:   12
1.0000
    3.543125    -0.253935     0.219728
    0.255572     3.700133     0.163686
    1.546026     1.478768     5.564671
   U   H
   3    8
Direct
    0.136361     0.539772     0.480254
    0.814562     0.104586     0.123234
    0.492675     0.670113     0.766000
    0.228111     0.148397     0.787131
    0.736727     0.148801     0.786899
    0.899837     0.694101     0.952565
    0.892290     0.061023     0.459485
    0.729178     0.515089     0.293739
    0.292628     0.357604     0.166852
    0.400591     0.061593     0.459172
    0.336643     0.852028     0.079214
EA8983  3.468  4.836  7.532 90.06 103.06 90.50 Sym.group:    5
1.0000
    0.909323     3.279616    -0.665617
   -4.656329     1.289855     0.212550
    0.255813    -0.344804     7.519613
   U   H
   6    9
Direct
    0.575982     0.806422     0.500539
    0.921706     0.682949     0.168485
    0.235822     0.804700     0.833186
    0.081081     0.184901     0.501016
    0.404911     0.310268     0.169073
    0.760466     0.186166     0.832087
    0.912260     0.498287     0.664293
    0.934450     0.095465     0.222475
    0.290445     0.393306     0.891997
    0.045630     0.595894     0.445165
    0.604003     0.997413     0.043698
    0.415785     0.494273     0.670068
    0.557059     0.394411     0.447665
    0.443952     0.898442     0.222295
    0.764150     0.597694     0.891057
EA8476  3.489  3.487  9.274 90.00 90.01 60.31 Sym.group:    2
1.0000
    1.390176     3.196454    -0.152142
   -2.067348     2.796655     0.254003
    1.085184    -0.034659     9.210309
   U   H
   4   12
Direct
    0.754104     0.246560     0.068842
    0.754675     0.245929     0.568859
    0.255945     0.744688     0.798723
    0.255093     0.745505     0.298736
    0.255228     0.245037     0.683663
    0.912037     0.402814     0.365291
    0.599003     0.087338     0.865194
    0.754619     0.746294     0.183906
    0.097679     0.588592     0.502435
    0.411125     0.903959     0.002409
    0.254464     0.245885     0.183713
    0.912987     0.401942     0.865232
    0.411742     0.903285     0.502493
    0.755548     0.745418     0.683854
    0.097046     0.589252     0.002396
    0.598036     0.088182     0.365257
EA9361  3.400  4.945  4.852 90.01 89.99 89.70 Sym.group:    1
1.0000
    3.392895     0.205130     0.070108
   -0.268336     4.934023    -0.183144
   -0.109625     0.173445     4.847842
   U   H
   4    6
Direct
    0.459011     0.104423     0.280936
    0.969310     0.613650     0.281016
    0.959130     0.104561     0.892671
    0.469630     0.613561     0.892707
    0.957679     0.220101     0.484420
    0.214547     0.858741     0.588708
    0.470317     0.497416     0.484947
    0.714581     0.859224     0.584697
    0.457999     0.219046     0.688948
    0.970827     0.499729     0.688806
EA1429  4.837  3.192  4.838 90.49 89.98 89.78 Sym.group:    1
1.0000
    4.828430     0.118769     0.268487
   -0.066034     3.191214    -0.006724
   -0.266375    -0.036498     4.830410
   U   H
   4    4
Direct
    0.546407     0.793344     0.961075
    0.049159     0.471636     0.955096
    0.548637     0.470142     0.454867
    0.045885     0.792963     0.461292
    0.289550     0.131418     0.210456
    0.791146     0.133998     0.712120
    0.805612     0.131300     0.204662
    0.303834     0.130898     0.704998
EA1655  3.724  3.730  3.611 89.94 89.94 76.62 Sym.group:   63
1.0000
    3.709837     0.261937     0.187251
    0.603903     3.680019     0.046226
   -0.177580    -0.012376     3.606678
   U   H
   2    6
Direct
    0.806953     0.693994     0.245135
    0.202334     0.299487     0.745086
    0.284460     0.775681     0.994540
    0.383288     0.115669     0.245021
    0.726085     0.216792     0.494207
    0.724815     0.217926     0.995688
    0.627350     0.879119     0.745133
    0.283463     0.776731     0.496154
EA4163  3.742  3.713  3.613 89.82 90.18 103.51 Sym.group:   11
1.0000
   -0.654624    -2.786394     2.409980
    1.135008     2.783193     2.179870
   -3.413852     1.126978     0.358279
   U   H
   2    6
Direct
    0.435135     0.533086     0.132429
    0.830302     0.932461     0.632329
    0.017492     0.105483     0.132369
    0.248214     0.360117     0.632353
    0.914161     0.455486     0.378112
    0.353914     0.013079     0.878714
    0.911158     0.452324     0.886253
    0.351332     0.009849     0.386565
EA9271  2.051  2.067  5.552 90.70 89.57 89.58 Sym.group:   12
1.0000
    2.018726    -0.228188    -0.280200
    0.221104     2.046440    -0.185750
    0.840718     0.337404     5.477726
   H
   8
Direct
    0.674687     0.052257     0.414841
    0.170153     0.539786     0.164469
    0.162462     0.545008     0.664519
    0.183445     0.514851     0.795747
    0.175652     0.517176     0.296124
    0.668696     0.007947     0.545685
    0.677333     0.057747     0.915353
    0.670354     0.000998     0.045469
EA2592  4.632  3.490  3.475 119.12 90.00 90.00 Sym.group:   67
1.0000
    4.630779    -0.018375     0.098678
    0.024558     3.450261    -0.523751
   -0.074045    -1.215905     3.254483
   U   H
   2    6
Direct
    0.532106     0.875890     0.204148
    0.066940     0.377694     0.705933
    0.659252     0.530505     0.546743
    0.939836     0.723057     0.363320
    0.659300     0.221039     0.861364
    0.300989     0.376591     0.205444
    0.298053     0.876959     0.704614
    0.939797     0.032505     0.048703
EA3329  4.466  2.044  2.064 91.56 102.86 102.93 Sym.group:    1
1.0000
    4.010685     0.305048    -1.941096
   -0.564227     1.955449     0.193729
    0.468922    -0.122174     2.006405
   H
   6
Direct
    0.235732     0.309008     0.181455
    0.067434     0.645696     0.653690
    0.569222     0.001025     0.884522
    0.404107     0.337858     0.327577
    0.904645     0.665076     0.504546
    0.735249     0.981664     0.946480
EA6654  4.606  3.475  3.502 118.80 90.00 90.00 Sym.group:   67
1.0000
    4.599584    -0.150752     0.194811
    0.103277     3.464628     0.241617
   -0.186566    -1.891520     2.941164
   U   H
   2    6
Direct
    0.600818     0.936825     0.131247
    0.127116     0.436927     0.631512
    0.008594     0.097003     0.976702
    0.008593     0.776691     0.286361
    0.361016     0.437105     0.131633
    0.367011     0.937018     0.631548
    0.719245     0.597169     0.476271
    0.719004     0.276436     0.785884
EA6195  3.770  3.766  3.541 89.89 90.06 77.71 Sym.group:   40
1.0000
    3.700878     0.417678    -0.581746
    0.360789     3.742164    -0.212230
    0.528427     0.153997     3.498206
   U   H
   2    6
Direct
    0.354461     0.411533     0.268363
    0.951793     0.813963     0.769370
    0.442233     0.901570     0.018280
    0.138697     0.266280     0.769123
    0.441075     0.900672     0.519162
    0.807014     0.597726     0.269552
    0.883823     0.112726     0.268626
    0.652421     0.344174     0.768789
EA3703  1.998  5.075  2.006 94.73 117.37 97.34 Sym.group:    1
1.0000
    1.848719    -0.321165    -0.685002
   -0.597035     4.664933    -1.907212
   -0.187694     0.577391     1.911569
   H
   6
Direct
    0.270504     0.635732     0.208377
    0.713960     0.212267     0.277254
    0.051560     0.965995     0.727558
    0.357588     0.553659     0.949061
    0.165981     0.887870     0.483558
    0.603273     0.299004     0.506635
EA7902  3.582  3.506  7.046 89.87 94.83 90.15 Sym.group:   11
1.0000
    3.580886     0.061384    -0.079177
   -0.071215     3.504580    -0.077387
   -0.440348     0.162135     7.030452
   U   H
   4    8
Direct
    0.418249     0.893234     0.283594
    0.021029     0.392543     0.106076
    0.050523     0.393203     0.590706
    0.387982     0.892671     0.799073
    0.727648     0.891571     0.044926
    0.711923     0.394162     0.344703
    0.888202     0.152275     0.843070
    0.886183     0.631652     0.842216
    0.550134     0.133811     0.546678
    0.552276     0.654103     0.547562
    0.499103     0.391798     0.953705
    0.940310     0.894062     0.436037
EA5566  3.479  3.478  6.834 89.66 90.40 89.10 Sym.group:   15
1.0000
    3.461982     0.338970    -0.040256
   -0.281163     3.459107     0.225868
    0.070530    -0.399031     6.821699
   U   H
   4    6
Direct
    0.272911     0.651405     0.600596
    0.328557     0.707404     0.100478
    0.761075     0.274334     0.417804
    0.705823     0.218857     0.917908
    0.982689     0.712659     0.852501
    0.267145     0.996749     0.352854
    0.051606     0.213756     0.165837
    0.208069     0.153844     0.759366
    0.766782     0.929174     0.665510
    0.826585     0.771844     0.259215
EA8986  4.905  4.905  4.903 76.81 76.88 76.88 Sym.group:    5
1.0000
    4.855125     0.264589     0.645882
    0.750628     4.770073     0.860980
    0.464530     0.196902     4.876819
   U   H
   6    6
Direct
    0.669541     0.667522     0.660644
    0.003027     0.000793     0.993692
    0.336318     0.334035     0.327276
    0.836124     0.500908     0.160423
    0.169659     0.834214     0.493720
    0.502934     0.167724     0.827116
    0.418834     0.751223     0.076987
    0.085905     0.418149     0.743503
    0.752566     0.083606     0.410201
    0.586220     0.917648     0.243661
    0.252324     0.584364     0.911010
    0.919370     0.251458     0.576414
EA1654  2.891  2.831  3.470 112.95 113.12 90.44 Sym.group:    2
1.0000
    2.813396     0.059339     0.663410
    0.030359     2.791420    -0.472985
   -2.013717    -0.896763     2.680497
   H
   8
Direct
    0.514345     0.565735     0.139865
    0.771171     0.318460     0.646644
    0.288819     0.065915     0.272549
    0.031451     0.273243     0.751933
    0.775985     0.525846     0.248879
    0.531601     0.811177     0.759839
    0.014215     0.022351     0.125731
    0.254651     0.777576     0.627350
EA4091  3.630  3.542  5.536 90.02 90.89 119.17 Sym.group:    8
1.0000
    2.455430    -2.509686     0.922897
    0.839476     3.428136     0.298397
   -2.019577     0.043855     5.154484
   U   H
   2   11
Direct
    0.498080     0.577545     0.305053
    0.179114     0.918040     0.804500
    0.158141     0.407541     0.995686
    0.547856     0.102121     0.115544
    0.101781     0.879335     0.182460
    0.849786     0.253413     0.279355
    0.676938     0.890727     0.980658
    0.678405     0.442533     0.980859
    0.003232     0.074374     0.491270
    0.495592     0.076318     0.493420
    0.839167     0.248286     0.757664
    0.514955     0.585702     0.683981
    0.003389     0.586526     0.490895
EA4675  3.533  3.691  5.548 90.00 89.97 118.57 Sym.group:   36
1.0000
    3.494392     0.399973     0.337511
   -2.116226     3.020719    -0.147484
   -0.519389    -0.094100     5.522729
   U   H
   2   12
Direct
    0.283911     0.146794     0.114813
    0.629102     0.837954     0.614814
    0.313187     0.652042     0.291972
    0.811237     0.200852     0.924708
    0.792314     0.163882     0.307048
    0.581460     0.746687     0.990799
    0.758163     0.653049     0.291102
    0.101794     0.782194     0.424308
    0.961977     0.503014     0.089194
    0.951411     0.482199     0.589912
    0.120012     0.821067     0.807213
    0.599802     0.332722     0.791663
    0.331194     0.238088     0.490708
    0.154255     0.331386     0.791173
EA4646  3.405  3.527  6.095 90.00 90.00 90.01 Sym.group:  194
1.0000
    3.385085     0.363105     0.054687
   -0.374879     3.505651    -0.097430
   -0.115215     0.156980     6.091591
   U   H
   4    4
Direct
    0.503489     0.240719     0.791879
    0.508625     0.740528     0.291835
    0.003348     0.240572     0.458530
    0.008577     0.740680     0.958574
    0.260345     0.240484     0.128030
    0.751540     0.740780     0.627933
    0.760424     0.240678     0.122419
    0.251834     0.740688     0.622307
EA1659  2.305  3.210  3.193 93.41 90.07 89.98 Sym.group:    1
1.0000
    2.271582     0.243698    -0.308014
   -0.456808     3.019726    -0.989134
    0.320059     0.849243     3.061561
   H
   8
Direct
    0.723848     0.546309     0.171307
    0.680701     0.943853     0.848526
    0.754826     0.073705     0.675613
    0.710762     0.411561     0.348055
    0.266547     0.892500     0.322916
    0.196868     0.596491     0.693026
    0.168930     0.063859     0.198497
    0.235642     0.422061     0.827992
EA5791  3.469  3.472  5.889 106.24 73.84 63.96 Sym.group:   12
1.0000
    3.432464     0.244178     0.436699
    1.404575     3.103399    -0.669335
    1.006958    -1.068144     5.703047
   U   H
   2    8
Direct
    0.883144     0.162618     0.712457
    0.834887     0.211465     0.169963
    0.609922     0.937027     0.441073
    0.451494     0.904727     0.812098
    0.108343     0.437293     0.441600
    0.578883     0.777428     0.069186
    0.534940     0.509380     0.549074
    0.266620     0.469495     0.070348
    0.183754     0.865211     0.333383
    0.140139     0.595859     0.812609
EA6137  3.490  5.243  4.826 90.09 90.00 90.15 Sym.group:   40
1.0000
    3.488037    -0.032549    -0.103366
    0.042516     5.236251     0.255896
    0.140128    -0.244267     4.818192
   U   H
   4    8
Direct
    0.247064     0.052510     0.938733
    0.745088     0.552109     0.062980
    0.245030     0.551382     0.440444
    0.747113     0.051105     0.561418
    0.496670     0.742473     0.751631
    0.494442     0.242274     0.252768
    0.994507     0.242089     0.249138
    0.995592     0.742282     0.751693
    0.744158     0.446491     0.649300
    0.246887     0.945935     0.352123
    0.746846     0.948294     0.146584
    0.244533     0.447759     0.854431
EA6158  5.053  3.436  3.488 115.78 86.18 86.63 Sym.group:   12
1.0000
    4.960879    -0.857524     0.432141
    0.784547     3.344778    -0.007938
   -0.293154    -1.481892     3.143398
   U   H
   2    8
Direct
    0.051259     0.479847     0.212537
    0.594652     0.884495     0.610411
    0.695922     0.530779     0.950894
    0.429686     0.399492     0.122453
    0.216109     0.964885     0.700390
    0.323463     0.933022     0.161686
    0.322489     0.431367     0.661328
    0.950082     0.833867     0.871956
    0.693569     0.214327     0.248443
    0.952444     0.150155     0.575070
EA8235  3.573  6.345  3.709 79.74 89.84 73.71 Sym.group:    8
1.0000
    3.520981     0.117725     0.597659
    1.332355     5.991571     1.609392
   -0.605033    -0.147633     3.656668
   U   H
   3   11
Direct
    0.537582     0.403244     0.641224
    0.226930     0.023853     0.248427
    0.846634     0.785049     0.003802
    0.943318     0.592355     0.576668
    0.629577     0.217701     0.209537
    0.079630     0.318244     0.896140
    0.259007     0.487407     0.110381
    0.787406     0.900680     0.474804
    0.731153     0.487165     0.110228
    0.372090     0.736479     0.729576
    0.942059     0.082478     0.723975
    0.390848     0.692262     0.289664
    0.083107     0.313725     0.433331
    0.455884     0.081329     0.722405
EA4206  3.663  3.736  5.368 91.19 90.14 60.71 Sym.group:    8
1.0000
    1.599486     3.290348    -0.175878
   -2.132887     3.066043    -0.102345
    0.193312     0.177806     5.361380
   U   H
   2   12
Direct
    0.508941     0.909621     0.172804
    0.168955     0.592588     0.670116
    0.497141     0.418063     0.323271
    0.030210     0.417714     0.007349
    0.465366     0.000270     0.796917
    0.010170     0.907737     0.330155
    0.693767     0.546049     0.854399
    0.988688     0.947224     0.992790
    0.198297     0.076366     0.506907
    0.483915     0.415084     0.007557
    0.845630     0.240137     0.685163
    0.012511     0.417547     0.321656
    0.656495     0.616662     0.499584
    0.654816     0.076129     0.507641
EA7167  3.581  3.600  6.436 97.81 106.06 90.09 Sym.group:    8
1.0000
    3.558610    -0.036015    -0.402257
   -0.004386     3.587329    -0.307059
   -1.079230    -0.337138     6.335453
   U   H
   3   11
Direct
    0.249376     0.891449     0.174986
    0.556831     0.308883     0.792322
    0.948143     0.586609     0.573061
    0.540250     0.414752     0.272680
    0.055877     0.414042     0.272975
    0.700537     0.633979     0.077191
    0.153104     0.332690     0.985380
    0.645526     0.079521     0.490850
    0.390150     0.683861     0.455402
    0.855640     0.838305     0.863681
    0.815329     0.838959     0.307852
    0.168437     0.079792     0.490130
    0.707270     0.122856     0.088783
    0.330361     0.836983     0.863857
EA4259  4.843  3.368  5.024 90.57 90.04 90.00 Sym.group:   13
1.0000
    4.827947    -0.192476     0.331302
    0.118356     3.357815     0.229327
   -0.361411    -0.378579     4.996925
   U   H
   4    6
Direct
    0.024024     0.804069     0.381115
    0.027937     0.151380     0.816772
    0.497524     0.798208     0.882516
    0.501510     0.145594     0.318065
    0.299827     0.478995     0.594487
    0.643797     0.642127     0.504086
    0.640757     0.299123     0.699961
    0.225583     0.470372     0.104787
    0.884753     0.650237     0.999208
    0.881714     0.307396     0.194976
EA1227  3.675  3.675  5.357 89.73 89.91 60.03 Sym.group:  156
1.0000
    3.669464     0.019547    -0.200551
    1.821196     3.192174    -0.007713
    0.301675    -0.129770     5.346959
   U   H
   2   11
Direct
    0.408414     0.689758     0.139212
    0.075521     0.354168     0.637607
    0.911113     0.686458     0.962344
    0.909171     0.189858     0.290273
    0.102411     0.841185     0.473124
    0.401040     0.192659     0.290425
    0.410892     0.190392     0.962637
    0.562908     0.842202     0.473117
    0.409515     0.686020     0.754991
    0.908027     0.190858     0.964153
    0.908592     0.688396     0.289488
    0.742374     0.018847     0.673878
    0.562831     0.379943     0.473311
EA3877  3.584  3.614  5.145 81.52 95.13 60.44 Sym.group:    1
1.0000
    3.580467    -0.086310    -0.130673
    1.862779     3.095495     0.093182
   -0.254287     0.886010     5.062030
   U   H
   2    9
Direct
    0.226475     0.994699     0.360592
    0.350407     0.500713     0.812160
    0.689594     0.048208     0.153994
    0.644628     0.537976     0.185203
    0.931458     0.381090     0.997286
    0.138214     0.583315     0.159137
    0.573478     0.300950     0.469698
    0.999334     0.191317     0.710976
    0.657371     0.859278     0.744727
    0.928267     0.633875     0.450579
    0.394126     0.948419     0.002907
EA2277  3.598  3.599  6.298 74.04 88.96 118.99 Sym.group:    8
1.0000
    2.342492     2.729939     0.077400
   -3.521703     0.727304    -0.145881
   -1.713398     1.454807     5.882882
   U   H
   2   15
Direct
    0.596474     0.107770     0.810154
    0.103646     0.096273     0.313605
    0.652790     0.729022     0.127448
[...]
    0.555069     0.703066     0.744174
    0.904500     0.027105     0.303426
    0.691644     0.134678     0.922820
    0.174643     0.893714     0.170657
    0.190528     0.384778     0.695121
EA9254  4.957  3.417  3.439 115.24 90.71 90.76 Sym.group:    8
1.0000
    4.951218     0.232552     0.026228
   -0.204547     3.408262    -0.138746
    0.003331    -1.340970     3.166443
   U   H
   2    7
Direct
    0.061418     0.997597     0.150036
    0.551779     0.488387     0.640967
    0.804230     0.993590     0.642893
    0.178987     0.663559     0.500056
    0.453268     0.138444     0.989270
    0.801665     0.489529     0.144423
    0.452613     0.831895     0.287110
    0.932904     0.496365     0.644500
    0.178129     0.343547     0.810846
EA7524  3.516  3.663  7.255 91.14 89.99 89.98 Sym.group:    6
1.0000
    3.506914    -0.191133     0.161512
    0.203327     3.656646    -0.063424
   -0.332043    -0.000275     7.247142
   U   H
   4   10
Direct
    0.711289     0.286972     0.059830
    0.211846     0.784344     0.351503
    0.211518     0.982036     0.851195
    0.711916     0.447248     0.541634
    0.212140     0.159975     0.583505
    0.711627     0.942317     0.690833
    0.469480     0.477601     0.805843
    0.211741     0.684168     0.624789
    0.711489     0.777644     0.952759
    0.211192     0.615554     0.074451
    0.953532     0.477833     0.805954
    0.712059     0.776700     0.192883
    0.711704     0.092195     0.325189
    0.211118     0.269620     0.217591
EA1022  5.554  3.390  4.751 90.63 82.97 82.78 Sym.group:    2
1.0000
    5.493456     0.814848     0.000576
   -0.072009     3.389237    -0.037165
    0.585961     0.012210     4.714913
   U   H
   4    8
Direct
    0.244606     0.297307     0.461871
    0.252970     0.777703     0.071724
    0.738536     0.230144     0.924304
    0.746943     0.710578     0.534198
    0.101585     0.311843     0.895316
    0.371046     0.774115     0.643486
    0.620655     0.234127     0.352077
    0.889820     0.696449     0.101168
    0.388229     0.244249     0.843683
    0.060181     0.862221     0.692428
    0.931759     0.145254     0.303351
    0.603227     0.763625     0.152302
EA4438  5.068  5.062  3.749 82.95 82.80 88.03 Sym.group:    8
1.0000
    5.046093     0.308706     0.360052
   -0.125276     5.058818    -0.137402
    0.173493     0.565044     3.701896
   U   H
   4   11
Direct
    0.716993     0.931035     0.930555
    0.770179     0.478050     0.300164
    0.253501     0.961580     0.281584
    0.223048     0.424908     0.930333
    0.860914     0.079814     0.406800
    0.099989     0.048802     0.791362
    0.599139     0.306831     0.813337
    0.477186     0.185844     0.556126
    0.997362     0.704958     0.616765
    0.371569     0.569462     0.407212
    0.608311     0.579514     0.802289
    0.128080     0.325616     0.469540
    0.341438     0.808094     0.789674
    0.871821     0.316286     0.802493
    0.617570     0.836413     0.469484
EA6943  3.520  3.519  5.496 97.69 97.68 64.78 Sym.group:    8
1.0000
    1.565734    -2.459317    -1.971604
    3.517945     0.046742     0.058877
   -0.770986    -3.052054     4.505717
   U   H
   2   11
Direct
    0.064261     0.446302     0.986577
    0.453326     0.835256     0.507203
    0.982420     0.920991     0.741892
    0.372867     0.329402     0.328646
    0.605639     0.474963     0.182840
    0.570151     0.951437     0.169830
    0.422850     0.804132     0.886436
    0.945417     0.759186     0.328114
    0.087123     0.469502     0.601574
    0.809927     0.191580     0.468919
    0.539051     0.364051     0.741410
    0.718340     0.100428     0.990934
    0.093081     0.987622     0.183104
EA2664  2.860  3.612  6.386 82.73 77.12 66.73 Sym.group:   12
1.0000
    2.834783     0.142925     0.347650
    1.235233     3.383139     0.277550
    0.651637     0.104208     6.351741
   U   H
   2   10
Direct
    0.579118     0.336780     0.494003
    0.012884     0.945100     0.020115
    0.273242     0.923608     0.519159
    0.317015     0.358189     0.998344
    0.835718     0.715024     0.602622
    0.956279     0.734252     0.342320
    0.297580     0.137101     0.257846
    0.585609     0.028583     0.790232
    0.636631     0.546227     0.171362
    0.005403     0.255137     0.723884
    0.756265     0.567124     0.911286
    0.296883     0.639474     0.757470
EA2771  4.862  3.489  7.829 89.90 71.94 90.16 Sym.group:    1
1.0000
    4.847712    -0.201774     0.311437
    0.168902     3.440649    -0.553939
    1.999773     1.121020     7.485867
   U   H
   6   10
Direct
    0.000933     0.501797     0.512039
    0.333499     0.501248     0.846408
    0.679062     0.492930     0.163137
    0.961082     0.991490     0.848102
    0.624997     0.996749     0.519093
    0.299246     0.998724     0.167257
    0.109268     0.491909     0.127465
    0.910182     0.000209     0.124303
    0.386478     0.747152     0.381451
    0.382315     0.497239     0.576045
    0.381734     0.247548     0.382907
    0.726629     0.499001     0.887377
    0.912655     0.755290     0.301485
    0.526178     0.993756     0.887082
    0.180223     0.000716     0.576012
    0.713421     0.252925     0.723920
EA6953  3.474  3.549  6.841 89.55 90.49 90.05 Sym.group:    6
1.0000
    3.462919    -0.246985    -0.113073
    0.251312     3.539389     0.059375
    0.159939    -0.072206     6.838483
   U   H
   4    7
Direct
    0.966015     0.853569     0.121536
    0.472673     0.250278     0.435075
    0.976755     0.888414     0.628618
    0.459570     0.164480     0.891930
    0.464158     0.658538     0.011786
    0.226178     0.354750     0.165208
    0.469659     0.751605     0.278133
    0.970660     0.559660     0.382301
    0.704864     0.353974     0.161996
    0.476744     0.600985     0.696903
    0.959393     0.497297     0.861498
EA4927  4.687  4.795  5.936 87.31 87.22 62.93 Sym.group:    2
1.0000
   -4.656541    -0.081514     0.526212
   -2.083210    -4.305771     0.328822
    0.380150    -0.041340     5.923483
   U   H
   6    8
Direct
    0.661749     0.785264     0.092700
    0.348134     0.335099     0.954352
    0.700867     0.664873     0.580086
    0.013326     0.115340     0.719442
    0.986538     0.008829     0.293574
    0.374167     0.441070     0.380337
    0.554327     0.131907     0.653286
    0.371867     0.027806     0.403884
    0.951701     0.726956     0.816361
    0.806399     0.318080     0.020798
    0.123022     0.820535     0.997230
    0.253578     0.628987     0.677690
    0.414442     0.721818     0.855894
    0.988346     0.422161     0.270069
EA1933  5.108  3.640  5.098 91.86 62.09 82.89 Sym.group:    1
1.0000
    5.030201    -0.511879     0.728044
    0.874751     3.509373    -0.413959
    1.725654    -0.035669     4.796631
   U   H
   3   13
Direct
    0.545506     0.140210     0.134397
    0.930384     0.535346     0.461215
    0.165617     0.728095     0.806293
    0.550642     0.890051     0.492964
    0.553168     0.381754     0.491813
    0.534231     0.891022     0.782505
    0.858934     0.039721     0.277736
    0.221293     0.253447     0.994687
    0.772544     0.587291     0.166978
    0.845064     0.049782     0.668229
    0.357305     0.681461     0.327412
    0.545734     0.382007     0.776414
    0.957467     0.266032     0.864655
    0.711037     0.616801     0.919111
    0.167064     0.936885     0.204656
    0.248745     0.197673     0.576150
EA6844  3.453  4.802  7.109 92.95 75.97 89.90 Sym.group:   12
1.0000
    3.419773    -0.266484    -0.392974
    0.381633     4.787189     0.001530
    2.459012    -0.565603     6.646130
   U   H
   6    6
Direct
    0.674509     0.842677     0.484858
    0.160381     0.473795     0.515115
    0.008040     0.962770     0.822893
    0.325379     0.965224     0.181558
    0.508487     0.351794     0.818284
    0.826009     0.354333     0.176911
    0.360104     0.549009     0.107199
    0.157679     0.059715     0.516248
    0.474077     0.767891     0.892563
    0.677847     0.256839     0.482634
    0.968890     0.552017     0.895858
    0.864804     0.764926     0.103825
EA781   5.695  3.861  3.467 95.77 103.21 74.43 Sym.group:    1
1.0000
    5.648871    -0.092864     0.716023
    1.008065     3.647633     0.764135
   -1.212628    -0.698501     3.172566
   U   H
   3    8
Direct
    0.096281     0.303580     0.994242
    0.466692     0.688681     0.689606
    0.727807     0.919168     0.299223
    0.458733     0.376429     0.129516
    0.371162     0.203052     0.510861
    0.944574     0.849356     0.876165
    0.089855     0.014100     0.460284
    0.109700     0.588628     0.529581
    0.249927     0.757368     0.111618
    0.833538     0.398462     0.463011
    0.735768     0.230187     0.854086
EA6578  3.723  3.733  5.378 91.08 89.28 119.28 Sym.group:    1
1.0000
    3.721838     0.028483    -0.068551
   -1.852438     3.239522    -0.094005
    0.165149     0.133261     5.373315
   U   H
   2   13
Direct
    0.763312     0.857818     0.169043
    0.434734     0.180546     0.675906
    0.086204     0.530623     0.666744
    0.764523     0.356159     0.013689
    0.917268     0.154866     0.839889
    0.253170     0.370432     0.336366
    0.263449     0.355797     0.010024
    0.535251     0.716561     0.520589
    0.908110     0.108931     0.516217
    0.265402     0.859092     0.011929
    0.217491     0.802803     0.355736
    0.913279     0.703303     0.828037
    0.458477     0.697736     0.838691
    0.818526     0.412698     0.362867
    0.441166     0.206958     0.285352
EA4825  3.499  3.498  4.952 90.01 90.01 90.01 Sym.group:  216
1.0000
    3.465599    -0.478655     0.014914
    0.476210     3.459038     0.216628
   -0.063664    -0.301804     4.942292
   U   H
   2   10
Direct
    0.417392     0.268812     0.555001
    0.917454     0.768797     0.055030
    0.163602     0.768717     0.431537
    0.417226     0.514625     0.178822
    0.417487     0.022712     0.178589
    0.417584     0.768811     0.804828
    0.171661     0.268962     0.931098
    0.663529     0.268811     0.931386
    0.671303     0.768948     0.431466
    0.917279     0.522582     0.678582
    0.917346     0.014950     0.678627
    0.917417     0.268659     0.305259
EA1542  3.393  3.444  3.447 113.82 66.50 113.41 Sym.group:   12
1.0000
    3.063211    -1.247650     0.758256
    0.017050     3.388504    -0.617762
    0.368450    -0.809713     3.329967
   U   H
   1    6
Direct
    0.350391     0.373641     0.015428
    0.956638     0.269200     0.612875
    0.956241     0.776307     0.117552
    0.296629     0.992681     0.396843
    0.744546     0.479033     0.418311
    0.406413     0.754813     0.633340
    0.744845     0.970892     0.912756
EA3335  5.973  5.212  9.875 97.50 100.63 115.85 Sym.group:    1
1.0000
    5.950400    -0.188504    -0.479211
   -2.105021     4.757737     0.310503
   -1.146016    -2.537803     9.474233
   U   H
  16    1
Direct
    0.622207     0.652089     0.864446
    0.875532     0.404540     0.368285
    0.626423     0.155066     0.868598
    0.706004     0.632649     0.618706
    0.705477     0.132409     0.620435
    0.125675     0.154497     0.869049
    0.380988     0.415092     0.374271
    0.200710     0.630241     0.619257
    0.456789     0.386780     0.115216
    0.956861     0.383245     0.119773
    0.203047     0.130780     0.618992
    0.381144     0.903134     0.375012
    0.927804     0.866786     0.111851
    0.456963     0.877911     0.115198
    0.878881     0.906615     0.368597
    0.125325     0.655507     0.869100
    0.282599     0.069852     0.215416
EA7140  4.625  3.415  4.636 89.93 95.64 89.93 Sym.group:   38
1.0000
    4.617694    -0.146312    -0.206534
    0.107882     3.412102    -0.098641
   -0.244833     0.147110     4.627659
   U   H
   4    3
Direct
    0.022151     0.070157     0.906250
    0.618234     0.571844     0.002625
    0.116396     0.571751     0.504615
    0.545093     0.070494     0.429168
    0.961592     0.072600     0.322812
    0.439738     0.072776     0.843224
    0.199807     0.568402     0.087805
EA9293  3.455  3.372  6.027 90.46 89.99 90.02 Sym.group:  164
1.0000
    3.447511    -0.193654    -0.130256
    0.182167     3.364067    -0.146718
    0.240285     0.201379     6.018898
   U   H
   4    2
Direct
    0.189196     0.956477     0.426814
    0.189420     0.417812     0.760171
    0.689588     0.955637     0.926697
    0.689806     0.417454     0.259989
    0.191371     0.686112     0.093951
    0.687610     0.687481     0.592965
EA2631  3.613  3.614  6.164 105.59 88.19 60.87 Sym.group:    8
1.0000
    3.584959    -0.436699    -0.090055
    2.119542     2.910497    -0.312286
    0.159246    -1.532580     5.968595
   U   H
   2   14
Direct
    0.047969     0.496773     0.237435
    0.531100     0.474397     0.733013
    0.499962     0.123054     0.409575
    0.444538     0.107102     0.921248
    0.205988     0.114302     0.700057
    0.953417     0.119623     0.406401
    0.633177     0.355526     0.053072
    0.086079     0.900683     0.052050
    0.982685     0.559143     0.918597
    0.598066     0.879360     0.068760
    0.087679     0.385648     0.554128
    0.499875     0.575219     0.407187
    0.088491     0.851709     0.553397
    0.621316     0.852210     0.554585
    0.863258     0.871228     0.796764
    0.369849     0.855326     0.274001
EA118   4.886  5.686  4.949 113.52 119.45 90.11 Sym.group:    1
1.0000
    4.801479    -0.894417     0.119520
    0.995780     5.524962     0.904340
   -2.944278    -2.058741     3.403522
   U   H
   5    9
Direct
    0.888505     0.875128     0.458862
    0.689796     0.296372     0.996657
    0.230858     0.065776     0.103092
    0.467644     0.695560     0.535568
    0.104162     0.503330     0.889492
    0.605459     0.961251     0.041595
    0.366608     0.363231     0.586330
    0.063745     0.545726     0.492233
    0.679968     0.173268     0.549267
    0.303018     0.032184     0.521103
    0.663357     0.388970     0.419409
    0.880060     0.794713     0.013254
    0.528438     0.639621     0.950303
    0.984415     0.199103     0.395942
EA9423  4.660  3.415  4.601 90.01 84.35 89.99 Sym.group:    6
1.0000
    4.639328    -0.011658     0.440875
   -0.005905     3.411050     0.157041
    0.018051    -0.212073     4.596087
   U   H
   4    3
Direct
    0.383355     0.542015     0.199475
    0.281811     0.041812     0.792362
    0.859405     0.541895     0.723853
    0.780261     0.041829     0.290545
    0.449932     0.541680     0.618344
    0.969341     0.541696     0.144726
    0.193673     0.042146     0.371053
EA658   3.512  3.711  5.905 73.26 106.77 89.62 Sym.group:    8
1.0000
    3.510826    -0.029580    -0.076381
    0.058792     3.707898     0.143176
   -1.572322     1.514915     5.486374
   U   H
   3    8
Direct
    0.294535     0.840943     0.636587
    0.974309     0.012545     0.982244
    0.617790     0.591868     0.276430
    0.217250     0.421183     0.479365
    0.204817     0.517926     0.957641
    0.116300     0.236148     0.273795
    0.711806     0.037308     0.469312
    0.712810     0.521983     0.955021
    0.809041     0.506546     0.661599
    0.549336     0.155869     0.133638
    0.384548     0.262852     0.797855
EA6595  3.485  3.592  6.467 78.53 74.42 89.77 Sym.group:    8
1.0000
    3.423167    -0.489608     0.432799
    0.471113     3.539069     0.391665
    1.029392     0.463719     6.368031
   U   H
   3   10
Direct
    0.315943     0.099328     0.846245
    0.716567     0.410095     0.041709
    0.018420     0.737726     0.440596
    0.172269     0.661235     0.126809
    0.565158     0.522054     0.347345
    0.468245     0.964215     0.539729
    0.621851     0.644311     0.746952
    0.853121     0.271248     0.332209
    0.106828     0.646336     0.748532
    0.462414     0.452858     0.555722
    0.297277     0.268366     0.334949
    0.621361     0.882188     0.227173
    0.920418     0.157688     0.633875
EA5520  3.685  3.489  7.102 89.86 85.89 90.01 Sym.group:    6
1.0000
    3.672339    -0.306260     0.028839
    0.289738     3.476007    -0.096627
    0.469298     0.175068     7.084554
   U   H
   4    9
Direct
    0.516241     0.051509     0.518643
    0.705249     0.049386     0.034781
    0.192593     0.552918     0.336842
    0.037101     0.550707     0.815216
    0.799301     0.551428     0.565509
    0.374908     0.549625     0.047913
    0.201864     0.055488     0.169085
    0.720243     0.548157     0.197821
    0.227853     0.049669     0.923002
    0.545672     0.802110     0.779944
    0.889249     0.053152     0.298760
    0.544974     0.299088     0.779282
    0.009285     0.051925     0.656385
EA4572  3.487  7.002  3.706 95.41 84.54 94.93 Sym.group:    1
1.0000
    3.471753    -0.299654    -0.137222
   -0.031942     6.964079    -0.728114
    0.502096     0.034801     3.671257
   U   H
   4    9
Direct
    0.583246     0.678891     0.179523
    0.577885     0.195537     0.141721
    0.985959     0.949922     0.784734
    0.051414     0.465022     0.830981
    0.111177     0.837725     0.251170
    0.044073     0.670922     0.490190
    0.050382     0.069988     0.305387
    0.101562     0.341065     0.305095
    0.300649     0.211281     0.661606
    0.801177     0.207625     0.620226
    0.575591     0.447318     0.501941
    0.513915     0.957487     0.455849
    0.424754     0.769033     0.717819
EA8046  3.440  4.895  4.824 91.06 88.66 91.73 Sym.group:    1
1.0000
    3.430303     0.172704     0.199561
   -0.387437     4.878068    -0.112461
   -0.167347     0.008150     4.820918
   U   H
   4    6
Direct
    0.763173     0.310865     0.274920
    0.308507     0.889213     0.370631
    0.722675     0.843918     0.799082
    0.285169     0.398340     0.902615
    0.824954     0.719715     0.195924
    0.024593     0.566540     0.561214
    0.509493     0.548845     0.546424
    0.211100     0.989840     0.971292
    0.787239     0.254767     0.700722
    0.250806     0.276078     0.501771
EA259   3.662  5.106  3.374 84.67 89.99 89.98 Sym.group:    6
1.0000
    3.600225     0.320155    -0.588794
   -0.474075     5.082349    -0.145345
    0.500639     0.456293     3.305719
   U   H
   2   11
Direct
    0.447492     0.460080     0.943251
    0.947543     0.970575     0.518139
    0.194005     0.821318     0.041010
    0.728236     0.337209     0.465972
    0.195827     0.618768     0.421252
    0.179998     0.331658     0.465868
    0.692149     0.622622     0.420670
    0.946670     0.591605     0.824176
    0.448250     0.097944     0.748676
    0.699646     0.821262     0.041749
    0.447550     0.073864     0.232153
    0.946751     0.226965     0.983480
    0.447227     0.830226     0.650595
EA2879  3.711  6.011  3.725 96.94 90.54 107.56 Sym.group:    8
1.0000
    3.606447    -0.296860     0.822043
   -1.335294     5.856436    -0.214985
   -0.895185    -0.534921     3.576385
   U   H
   3   11
Direct
    0.123953     0.377072     0.902362
    0.454261     0.041877     0.265362
    0.791034     0.713328     0.562527
    0.645979     0.413823     0.180589
    0.038277     0.212665     0.372094
    0.542303     0.212537     0.825507
    0.616171     0.369851     0.610562
    0.892752     0.920014     0.113269
    0.205226     0.541216     0.430058
    0.043114     0.697748     0.070384
    0.735214     0.036901     0.757432
    0.524182     0.698036     0.065439
    0.346304     0.823052     0.716138
    0.169962     0.036911     0.755216
EA7502  3.411  3.339  3.948 100.04 89.65 90.35 Sym.group:   11
1.0000
    3.409887    -0.091764    -0.042634
    0.063797     3.313028    -0.407683
    0.067452    -0.209909     3.941430
   U   H
   2    4
Direct
    0.173031     0.909504     0.744825
    0.672615     0.493505     0.376192
    0.674198     0.289409     0.838684
    0.171266     0.113350     0.282292
    0.174360     0.481899     0.060969
    0.671267     0.921018     0.059825